onset	duration	trial_type	response_time	Endowment	Decision	Offer
4.506519	2	cue_nonsocial	n/a	32	n/a	n/a
4.506519	2	cue_nonsocial_high	n/a	32	n/a	n/a
6.512744	0.865523	dec_nonsocial_high	0.865523	32	n/a	16
6.512744	0.865523	dec_nonsocial_high_accept	0.865523	32	accept	16
12.156941	2	cue_nonsocial	n/a	16	n/a	n/a
12.156941	2	cue_nonsocial_low	n/a	16	n/a	n/a
14.162828	0.932725	dec_nonsocial_low	0.932725	16	n/a	4
14.162828	0.932725	dec_nonsocial_low_accept	0.932725	16	accept	4
19.102962	2	cue_social	n/a	16	n/a	n/a
19.102962	2	cue_social_low	n/a	16	n/a	n/a
20.994686	0.984307	dec_social_low	0.984307	16	n/a	8
20.994686	0.984307	dec_social_low_accept	0.984307	16	accept	8
26.750193	2	cue_social	n/a	16	n/a	n/a
26.750193	2	cue_social_low	n/a	16	n/a	n/a
28.646563	0.965314	dec_social_low	0.965314	16	n/a	1
28.646563	0.965314	dec_social_low_reject	0.965314	16	reject	1
33.486010	2	cue_social	n/a	16	n/a	n/a
33.486010	2	cue_social_low	n/a	16	n/a	n/a
35.479020	1.383553	dec_social_low	1.383553	16	n/a	4
35.479020	1.383553	dec_social_low_accept	1.383553	16	accept	4
40.368343	2	cue_social	n/a	32	n/a	n/a
40.368343	2	cue_social_high	n/a	32	n/a	n/a
42.312687	1.049907	dec_social_high	1.049907	32	n/a	2
42.312687	1.049907	dec_social_high_reject	1.049907	32	reject	2
47.957466	2	cue_nonsocial	n/a	32	n/a	n/a
47.957466	2	cue_nonsocial_high	n/a	32	n/a	n/a
49.962980	1.249632	dec_nonsocial_high	1.249632	32	n/a	8
49.962980	1.249632	dec_nonsocial_high_accept	1.249632	32	accept	8
54.898678	2	cue_social	n/a	16	n/a	n/a
54.898678	2	cue_social_low	n/a	16	n/a	n/a
56.796020	0.983582	dec_social_low	0.983582	16	n/a	8
56.796020	0.983582	dec_social_low_accept	0.983582	16	accept	8
61.624004	2	cue_nonsocial	n/a	32	n/a	n/a
61.624004	2	cue_nonsocial_high	n/a	32	n/a	n/a
63.628963	0.916634	dec_nonsocial_high	0.916634	32	n/a	8
63.628963	0.916634	dec_nonsocial_high_accept	0.916634	32	accept	8
69.353836	2	cue_social	n/a	32	n/a	n/a
69.353836	2	cue_social_high	n/a	32	n/a	n/a
71.278660	1.417298	dec_social_high	1.417298	32	n/a	3
71.278660	1.417298	dec_social_high_reject	1.417298	32	reject	3
78.638960	2	cue_social	n/a	32	n/a	n/a
78.638960	2	cue_social_high	n/a	32	n/a	n/a
80.530106	1.232887	dec_social_high	1.232887	32	n/a	2
80.530106	1.232887	dec_social_high_reject	1.232887	32	reject	2
87.791250	2	cue_nonsocial	n/a	32	n/a	n/a
87.791250	2	cue_nonsocial_high	n/a	32	n/a	n/a
89.795555	1.334261	dec_nonsocial_high	1.334261	32	n/a	8
89.795555	1.334261	dec_nonsocial_high_accept	1.334261	32	accept	8
97.041510	2	cue_nonsocial	n/a	16	n/a	n/a
97.041510	2	cue_nonsocial_low	n/a	16	n/a	n/a
99.046910	1.033006	dec_nonsocial_low	1.033006	16	n/a	8
99.046910	1.033006	dec_nonsocial_low_accept	1.033006	16	accept	8
103.977780	2	cue_social	n/a	16	n/a	n/a
103.977780	2	cue_social_low	n/a	16	n/a	n/a
105.879790	1.250173	dec_social_low	1.250173	16	n/a	2
105.879790	1.250173	dec_social_low_reject	1.250173	16	reject	2
114.741240	2	cue_nonsocial	n/a	16	n/a	n/a
114.741240	2	cue_nonsocial_low	n/a	16	n/a	n/a
116.747260	1.150142	dec_nonsocial_low	1.150142	16	n/a	4
116.747260	1.150142	dec_nonsocial_low_accept	1.150142	16	accept	4
122.389110	2	cue_social	n/a	16	n/a	n/a
122.389110	2	cue_social_low	n/a	16	n/a	n/a
124.396790	1.200165	dec_social_low	1.200165	16	n/a	2
124.396790	1.200165	dec_social_low_reject	1.200165	16	reject	2
129.225040	2	cue_nonsocial	n/a	16	n/a	n/a
129.225040	2	cue_nonsocial_low	n/a	16	n/a	n/a
131.229810	1.366511	dec_nonsocial_low	1.366511	16	n/a	2
131.229810	1.366511	dec_nonsocial_low_reject	1.366511	16	reject	2
136.123080	2	cue_social	n/a	16	n/a	n/a
136.123080	2	cue_social_low	n/a	16	n/a	n/a
138.063980	1.082938	dec_social_low	1.082938	16	n/a	4
138.063980	1.082938	dec_social_low_accept	1.082938	16	accept	4
142.891780	2	cue_nonsocial	n/a	32	n/a	n/a
142.891780	2	cue_nonsocial_high	n/a	32	n/a	n/a
144.897890	1.032213	dec_nonsocial_high	1.032213	32	n/a	3
144.897890	1.032213	dec_nonsocial_high_reject	1.032213	32	reject	3
152.158680	2	cue_nonsocial	n/a	32	n/a	n/a
152.158680	2	cue_nonsocial_high	n/a	32	n/a	n/a
154.163480	1.300346	dec_nonsocial_high	1.300346	32	n/a	16
154.163480	1.300346	dec_nonsocial_high_accept	1.300346	32	accept	16
163.025000	2	cue_nonsocial	n/a	32	n/a	n/a
163.025000	2	cue_nonsocial_high	n/a	32	n/a	n/a
165.030980	1.733031	dec_nonsocial_high	1.733031	32	n/a	2
165.030980	1.733031	dec_nonsocial_high_reject	1.733031	32	reject	2
169.858410	2	cue_nonsocial	n/a	16	n/a	n/a
169.858410	2	cue_nonsocial_low	n/a	16	n/a	n/a
171.864720	1.099082	dec_nonsocial_low	1.099082	16	n/a	1
171.864720	1.099082	dec_nonsocial_low_reject	1.099082	16	reject	1
176.801640	2	cue_social	n/a	16	n/a	n/a
176.801640	2	cue_social_low	n/a	16	n/a	n/a
178.697800	0.933348	dec_social_low	0.933348	16	n/a	1
178.697800	0.933348	dec_social_low_reject	0.933348	16	reject	1
183.528150	2	cue_social	n/a	32	n/a	n/a
183.528150	2	cue_social_high	n/a	32	n/a	n/a
185.531650	0.932454	dec_social_high	0.932454	32	n/a	8
185.531650	0.932454	dec_social_high_accept	0.932454	32	accept	8
191.308620	2	cue_social	n/a	16	n/a	n/a
191.308620	2	cue_social_low	n/a	16	n/a	n/a
193.180900	1.333485	dec_social_low	1.333485	16	n/a	4
193.180900	1.333485	dec_social_low_accept	1.333485	16	accept	4
198.069340	2	cue_social	n/a	32	n/a	n/a
198.069340	2	cue_social_high	n/a	32	n/a	n/a
200.014000	0.966305	dec_social_high	0.966305	32	n/a	16
200.014000	0.966305	dec_social_high_accept	0.966305	32	accept	16
204.949700	2	cue_social	n/a	16	n/a	n/a
204.949700	2	cue_social_low	n/a	16	n/a	n/a
206.847840	1.216655	dec_social_low	1.216655	16	n/a	2
206.847840	1.216655	dec_social_low_reject	1.216655	16	reject	2
211.675450	2	cue_nonsocial	n/a	16	n/a	n/a
211.675450	2	cue_nonsocial_low	n/a	16	n/a	n/a
213.681270	1.166047	dec_nonsocial_low	1.166047	16	n/a	1
213.681270	1.166047	dec_nonsocial_low_reject	1.166047	16	reject	1
218.508740	2	cue_nonsocial	n/a	32	n/a	n/a
218.508740	2	cue_nonsocial_high	n/a	32	n/a	n/a
220.515720	1.315017	dec_nonsocial_high	1.315017	32	n/a	3
220.515720	1.315017	dec_nonsocial_high_reject	1.315017	32	reject	3
225.342180	2	cue_nonsocial	n/a	16	n/a	n/a
225.342180	2	cue_nonsocial_low	n/a	16	n/a	n/a
227.348660	1.332788	dec_nonsocial_low	1.332788	16	n/a	2
227.348660	1.332788	dec_nonsocial_low_reject	1.332788	16	reject	2
232.992170	2	cue_nonsocial	n/a	32	n/a	n/a
232.992170	2	cue_nonsocial_high	n/a	32	n/a	n/a
234.997800	1.100200	dec_nonsocial_high	1.100200	32	n/a	16
234.997800	1.100200	dec_nonsocial_high_accept	1.100200	32	accept	16
240.627150	2	cue_nonsocial	n/a	32	n/a	n/a
240.627150	2	cue_nonsocial_high	n/a	32	n/a	n/a
242.631800	1.282966	dec_nonsocial_high	1.282966	32	n/a	3
242.631800	1.282966	dec_nonsocial_high_reject	1.282966	32	reject	3
248.275920	2	cue_nonsocial	n/a	16	n/a	n/a
248.275920	2	cue_nonsocial_low	n/a	16	n/a	n/a
250.281830	1.249652	dec_nonsocial_low	1.249652	16	n/a	4
250.281830	1.249652	dec_nonsocial_low_accept	1.249652	16	accept	4
255.109160	2	cue_nonsocial	n/a	32	n/a	n/a
255.109160	2	cue_nonsocial_high	n/a	32	n/a	n/a
257.115780	1.265472	dec_nonsocial_high	1.265472	32	n/a	3
257.115780	1.265472	dec_nonsocial_high_reject	1.265472	32	reject	3
262.848020	2	cue_social	n/a	32	n/a	n/a
262.848020	2	cue_social_high	n/a	32	n/a	n/a
264.764700	1.300275	dec_social_high	1.300275	32	n/a	2
264.764700	1.300275	dec_social_high_reject	1.300275	32	reject	2
275.315000	2	cue_social	n/a	16	n/a	n/a
275.315000	2	cue_social_low	n/a	16	n/a	n/a
277.248260	1.083458	dec_social_low	1.083458	16	n/a	2
277.248260	1.083458	dec_social_low_reject	1.083458	16	reject	2
282.105130	2	cue_social	n/a	16	n/a	n/a
282.105130	2	cue_social_low	n/a	16	n/a	n/a
284.081600	1.183216	dec_social_low	1.183216	16	n/a	8
284.081600	1.183216	dec_social_low_accept	1.183216	16	accept	8
289.019230	2	cue_social	n/a	16	n/a	n/a
289.019230	2	cue_social_low	n/a	16	n/a	n/a
290.915650	2.133113	dec_social_low	2.133113	16	n/a	4
290.915650	2.133113	dec_social_low_accept	2.133113	16	accept	4
295.848540	2	cue_social	n/a	16	n/a	n/a
295.848540	2	cue_social_low	n/a	16	n/a	n/a
297.749660	1.049151	dec_social_low	1.049151	16	n/a	1
297.749660	1.049151	dec_social_low_reject	1.049151	16	reject	1
306.724760	2	cue_social	n/a	16	n/a	n/a
306.724760	2	cue_social_low	n/a	16	n/a	n/a
308.615630	1.100156	dec_social_low	1.100156	16	n/a	4
308.615630	1.100156	dec_social_low_accept	1.100156	16	accept	4
314.260350	2	cue_nonsocial	n/a	16	n/a	n/a
314.260350	2	cue_nonsocial_low	n/a	16	n/a	n/a
316.264770	1.066820	dec_nonsocial_low	1.066820	16	n/a	1
316.264770	1.066820	dec_nonsocial_low_reject	1.066820	16	reject	1
323.638920	2	cue_social	n/a	32	n/a	n/a
323.638920	2	cue_social_high	n/a	32	n/a	n/a
325.533630	0.864757	dec_social_high	0.864757	32	n/a	16
325.533630	0.864757	dec_social_high_accept	0.864757	32	accept	16
332.793950	2	cue_nonsocial	n/a	16	n/a	n/a
332.793950	2	cue_nonsocial_low	n/a	16	n/a	n/a
334.798650	1.217283	dec_nonsocial_low	1.217283	16	n/a	1
334.798650	1.217283	dec_nonsocial_low_reject	1.217283	16	reject	1
339.626770	2	cue_nonsocial	n/a	16	n/a	n/a
339.626770	2	cue_nonsocial_low	n/a	16	n/a	n/a
341.632720	1.249766	dec_nonsocial_low	1.249766	16	n/a	8
341.632720	1.249766	dec_nonsocial_low_accept	1.249766	16	accept	8
348.990660	2	cue_social	n/a	32	n/a	n/a
348.990660	2	cue_social_high	n/a	32	n/a	n/a
350.882800	0.916593	dec_social_high	0.916593	32	n/a	16
350.882800	0.916593	dec_social_high_accept	0.916593	32	accept	16
355.710200	2	cue_nonsocial	n/a	16	n/a	n/a
355.710200	2	cue_nonsocial_low	n/a	16	n/a	n/a
357.715670	0.900460	dec_nonsocial_low	0.900460	16	n/a	1
357.715670	0.900460	dec_nonsocial_low_reject	0.900460	16	reject	1
363.463840	2	cue_social	n/a	16	n/a	n/a
363.463840	2	cue_social_low	n/a	16	n/a	n/a
365.350560	1.299289	dec_social_low	1.299289	16	n/a	2
365.350560	1.299289	dec_social_low_reject	1.299289	16	reject	2
370.179630	2	cue_nonsocial	n/a	16	n/a	n/a
370.179630	2	cue_nonsocial_low	n/a	16	n/a	n/a
372.183230	1.199769	dec_nonsocial_low	1.199769	16	n/a	8
372.183230	1.199769	dec_nonsocial_low_accept	1.199769	16	accept	8
