onset	duration	trial_type	response_time	Endowment	Decision	Offer
4.619541	2	cue_social	n/a	16	n/a	n/a
4.619541	2	cue_social_low	n/a	16	n/a	n/a
6.514415	0.883063	dec_social_low	0.883063	16	n/a	8
6.514415	0.883063	dec_social_low_accept	0.883063	16	accept	8
13.758211	2	cue_nonsocial	n/a	16	n/a	n/a
13.758211	2	cue_nonsocial_low	n/a	16	n/a	n/a
15.764133	1.066116	dec_nonsocial_low	1.066116	16	n/a	8
15.764133	1.066116	dec_nonsocial_low_accept	1.066116	16	accept	8
21.408684	2	cue_nonsocial	n/a	16	n/a	n/a
21.408684	2	cue_nonsocial_low	n/a	16	n/a	n/a
23.414446	1.333282	dec_nonsocial_low	1.333282	16	n/a	1
23.414446	1.333282	dec_nonsocial_low_reject	1.333282	16	reject	1
28.242336	2	cue_nonsocial	n/a	32	n/a	n/a
28.242336	2	cue_nonsocial_high	n/a	32	n/a	n/a
30.247438	0.833655	dec_nonsocial_high	0.833655	32	n/a	8
30.247438	0.833655	dec_nonsocial_high_accept	0.833655	32	accept	8
35.088750	2	cue_nonsocial	n/a	16	n/a	n/a
35.088750	2	cue_nonsocial_low	n/a	16	n/a	n/a
37.080673	1.716292	dec_nonsocial_low	1.716292	16	n/a	2
37.080673	1.716292	dec_nonsocial_low_reject	1.716292	16	reject	2
44.431550	2	cue_social	n/a	16	n/a	n/a
44.431550	2	cue_social_low	n/a	16	n/a	n/a
46.330486	1.216657	dec_social_low	1.216657	16	n/a	4
46.330486	1.216657	dec_social_low_accept	1.216657	16	accept	4
52.056347	2	cue_social	n/a	16	n/a	n/a
52.056347	2	cue_social_low	n/a	16	n/a	n/a
53.980152	1.083821	dec_social_low	1.083821	16	n/a	4
53.980152	1.083821	dec_social_low_accept	1.083821	16	accept	4
59.737670	2	cue_social	n/a	16	n/a	n/a
59.737670	2	cue_social_low	n/a	16	n/a	n/a
61.632545	2.448975	dec_social_low	2.448975	16	n/a	2
61.632545	2.448975	dec_social_low_accept	2.448975	16	accept	2
67.275240	2	cue_nonsocial	n/a	16	n/a	n/a
67.275240	2	cue_nonsocial_low	n/a	16	n/a	n/a
69.282074	1.115681	dec_nonsocial_low	1.115681	16	n/a	4
69.282074	1.115681	dec_nonsocial_low_accept	1.115681	16	accept	4
76.609000	2	cue_social	n/a	32	n/a	n/a
76.609000	2	cue_social_high	n/a	32	n/a	n/a
78.548256	1.016814	dec_social_high	1.016814	32	n/a	8
78.548256	1.016814	dec_social_high_accept	1.016814	32	accept	8
83.456260	2	cue_social	n/a	32	n/a	n/a
83.456260	2	cue_social_high	n/a	32	n/a	n/a
85.380560	1.683760	dec_social_high	1.683760	32	n/a	3
85.380560	1.683760	dec_social_high_accept	1.683760	32	accept	3
90.304820	2	cue_social	n/a	32	n/a	n/a
90.304820	2	cue_social_high	n/a	32	n/a	n/a
92.215195	0.916156	dec_social_high	0.916156	32	n/a	2
92.215195	0.916156	dec_social_high_reject	0.916156	32	reject	2
99.459840	2	cue_nonsocial	n/a	32	n/a	n/a
99.459840	2	cue_nonsocial_high	n/a	32	n/a	n/a
101.465550	0.899330	dec_nonsocial_high	0.899330	32	n/a	8
101.465550	0.899330	dec_nonsocial_high_accept	0.899330	32	accept	8
106.292460	2	cue_nonsocial	n/a	16	n/a	n/a
106.292460	2	cue_nonsocial_low	n/a	16	n/a	n/a
108.298874	1.583090	dec_nonsocial_low	1.583090	16	n/a	1
108.298874	1.583090	dec_nonsocial_low_reject	1.583090	16	reject	1
114.031204	2	cue_social	n/a	32	n/a	n/a
114.031204	2	cue_social_high	n/a	32	n/a	n/a
115.949540	1.582512	dec_social_high	1.582512	32	n/a	2
115.949540	1.582512	dec_social_high_reject	1.582512	32	reject	2
121.593530	2	cue_nonsocial	n/a	32	n/a	n/a
121.593530	2	cue_nonsocial_high	n/a	32	n/a	n/a
123.598660	1.883454	dec_nonsocial_high	1.883454	32	n/a	3
123.598660	1.883454	dec_nonsocial_high_accept	1.883454	32	accept	3
129.243500	2	cue_nonsocial	n/a	32	n/a	n/a
129.243500	2	cue_nonsocial_high	n/a	32	n/a	n/a
131.249010	0.915690	dec_nonsocial_high	0.915690	32	n/a	16
131.249010	0.915690	dec_nonsocial_high_accept	0.915690	32	accept	16
136.154020	2	cue_social	n/a	32	n/a	n/a
136.154020	2	cue_social_high	n/a	32	n/a	n/a
138.081480	1.350877	dec_social_high	1.350877	32	n/a	3
138.081480	1.350877	dec_social_high_accept	1.350877	32	accept	3
146.950350	2	cue_social	n/a	16	n/a	n/a
146.950350	2	cue_social_low	n/a	16	n/a	n/a
148.949170	0.849915	dec_social_low	0.849915	16	n/a	8
148.949170	0.849915	dec_social_low_accept	0.849915	16	accept	8
153.877100	2	cue_social	n/a	16	n/a	n/a
153.877100	2	cue_social_low	n/a	16	n/a	n/a
155.782330	1.733413	dec_social_low	1.733413	16	n/a	4
155.782330	1.733413	dec_social_low_accept	1.733413	16	accept	4
160.609800	2	cue_nonsocial	n/a	16	n/a	n/a
160.609800	2	cue_nonsocial_low	n/a	16	n/a	n/a
162.616290	0.999365	dec_nonsocial_low	0.999365	16	n/a	1
162.616290	0.999365	dec_nonsocial_low_reject	0.999365	16	reject	1
167.443310	2	cue_nonsocial	n/a	32	n/a	n/a
167.443310	2	cue_nonsocial_high	n/a	32	n/a	n/a
169.449800	1.382546	dec_nonsocial_high	1.382546	32	n/a	16
169.449800	1.382546	dec_nonsocial_high_accept	1.382546	32	accept	16
176.779240	2	cue_social	n/a	32	n/a	n/a
176.779240	2	cue_social_high	n/a	32	n/a	n/a
178.715260	1.316849	dec_social_high	1.316849	32	n/a	2
178.715260	1.316849	dec_social_high_reject	1.316849	32	reject	2
183.623730	2	cue_social	n/a	32	n/a	n/a
183.623730	2	cue_social_high	n/a	32	n/a	n/a
185.548370	1.100868	dec_social_high	1.100868	32	n/a	8
185.548370	1.100868	dec_social_high_accept	1.100868	32	accept	8
191.194230	2	cue_nonsocial	n/a	16	n/a	n/a
191.194230	2	cue_nonsocial_low	n/a	16	n/a	n/a
193.199550	0.933310	dec_nonsocial_low	0.933310	16	n/a	8
193.199550	0.933310	dec_nonsocial_low_accept	0.933310	16	accept	8
203.676960	2	cue_nonsocial	n/a	32	n/a	n/a
203.676960	2	cue_nonsocial_high	n/a	32	n/a	n/a
205.682540	2.116345	dec_nonsocial_high	2.116345	32	n/a	3
205.682540	2.116345	dec_nonsocial_high_accept	2.116345	32	accept	3
210.551790	2	cue_social	n/a	32	n/a	n/a
210.551790	2	cue_social_high	n/a	32	n/a	n/a
212.516750	1.865601	dec_social_high	1.865601	32	n/a	3
212.516750	1.865601	dec_social_high_accept	1.865601	32	accept	3
217.436200	2	cue_social	n/a	16	n/a	n/a
217.436200	2	cue_social_low	n/a	16	n/a	n/a
219.349120	0.899953	dec_social_low	0.899953	16	n/a	1
219.349120	0.899953	dec_social_low_reject	0.899953	16	reject	1
224.994080	2	cue_nonsocial	n/a	32	n/a	n/a
224.994080	2	cue_nonsocial_high	n/a	32	n/a	n/a
226.999710	1.150219	dec_nonsocial_high	1.150219	32	n/a	8
226.999710	1.150219	dec_nonsocial_high_accept	1.150219	32	accept	8
232.702510	2	cue_social	n/a	32	n/a	n/a
232.702510	2	cue_social_high	n/a	32	n/a	n/a
234.650530	1.699189	dec_social_high	1.699189	32	n/a	2
234.650530	1.699189	dec_social_high_reject	1.699189	32	reject	2
239.477340	2	cue_nonsocial	n/a	32	n/a	n/a
239.477340	2	cue_nonsocial_high	n/a	32	n/a	n/a
241.483290	1.000228	dec_nonsocial_high	1.000228	32	n/a	3
241.483290	1.000228	dec_nonsocial_high_reject	1.000228	32	reject	3
246.310580	2	cue_nonsocial	n/a	16	n/a	n/a
246.310580	2	cue_nonsocial_low	n/a	16	n/a	n/a
248.316680	0.983223	dec_nonsocial_low	0.983223	16	n/a	1
248.316680	0.983223	dec_nonsocial_low_reject	0.983223	16	reject	1
253.154140	2	cue_nonsocial	n/a	32	n/a	n/a
253.154140	2	cue_nonsocial_high	n/a	32	n/a	n/a
255.150700	1.582888	dec_nonsocial_high	1.582888	32	n/a	3
255.150700	1.582888	dec_nonsocial_high_accept	1.582888	32	accept	3
260.038640	2	cue_social	n/a	16	n/a	n/a
260.038640	2	cue_social_low	n/a	16	n/a	n/a
261.984000	0.799808	dec_social_low	0.799808	16	n/a	8
261.984000	0.799808	dec_social_low_accept	0.799808	16	accept	8
270.855870	2	cue_nonsocial	n/a	16	n/a	n/a
270.855870	2	cue_nonsocial_low	n/a	16	n/a	n/a
272.850130	1.033205	dec_nonsocial_low	1.033205	16	n/a	1
272.850130	1.033205	dec_nonsocial_low_reject	1.033205	16	reject	1
277.677830	2	cue_nonsocial	n/a	32	n/a	n/a
277.677830	2	cue_nonsocial_high	n/a	32	n/a	n/a
279.684230	1.582854	dec_nonsocial_high	1.582854	32	n/a	16
279.684230	1.582854	dec_nonsocial_high_accept	1.582854	32	accept	16
287.010100	2	cue_social	n/a	16	n/a	n/a
287.010100	2	cue_social_low	n/a	16	n/a	n/a
288.950960	0.816075	dec_social_low	0.816075	16	n/a	1
288.950960	0.816075	dec_social_low_reject	0.816075	16	reject	1
294.695800	2	cue_social	n/a	32	n/a	n/a
294.695800	2	cue_social_high	n/a	32	n/a	n/a
296.584000	1.049492	dec_social_high	1.049492	32	n/a	16
296.584000	1.049492	dec_social_high_accept	1.049492	32	accept	16
301.412080	2	cue_nonsocial	n/a	16	n/a	n/a
301.412080	2	cue_nonsocial_low	n/a	16	n/a	n/a
303.417760	1.249310	dec_nonsocial_low	1.249310	16	n/a	8
303.417760	1.249310	dec_nonsocial_low_accept	1.249310	16	accept	8
308.244720	2	cue_nonsocial	n/a	16	n/a	n/a
308.244720	2	cue_nonsocial_low	n/a	16	n/a	n/a
310.250580	1.200371	dec_nonsocial_low	1.200371	16	n/a	2
310.250580	1.200371	dec_nonsocial_low_reject	1.200371	16	reject	2
317.566070	2	cue_social	n/a	16	n/a	n/a
317.566070	2	cue_social_low	n/a	16	n/a	n/a
319.499730	1.250376	dec_social_low	1.250376	16	n/a	4
319.499730	1.250376	dec_social_low_accept	1.250376	16	accept	4
324.387150	2	cue_social	n/a	32	n/a	n/a
324.387150	2	cue_social_high	n/a	32	n/a	n/a
326.333340	1.950616	dec_social_high	1.950616	32	n/a	3
326.333340	1.950616	dec_social_high_reject	1.950616	32	reject	3
331.162000	2	cue_nonsocial	n/a	16	n/a	n/a
331.162000	2	cue_nonsocial_low	n/a	16	n/a	n/a
333.167970	1.132567	dec_nonsocial_low	1.132567	16	n/a	4
333.167970	1.132567	dec_nonsocial_low_accept	1.132567	16	accept	4
338.866760	2	cue_social	n/a	16	n/a	n/a
338.866760	2	cue_social_low	n/a	16	n/a	n/a
340.817320	0.983448	dec_social_low	0.983448	16	n/a	8
340.817320	0.983448	dec_social_low_accept	0.983448	16	accept	8
345.645750	2	cue_nonsocial	n/a	16	n/a	n/a
345.645750	2	cue_nonsocial_low	n/a	16	n/a	n/a
347.651860	1.115916	dec_nonsocial_low	1.115916	16	n/a	4
347.651860	1.115916	dec_nonsocial_low_accept	1.115916	16	accept	4
353.295780	2	cue_nonsocial	n/a	16	n/a	n/a
353.295780	2	cue_nonsocial_low	n/a	16	n/a	n/a
355.301330	0.833033	dec_nonsocial_low	0.833033	16	n/a	1
355.301330	0.833033	dec_nonsocial_low_reject	0.833033	16	reject	1
360.202240	2	cue_social	n/a	32	n/a	n/a
360.202240	2	cue_social_high	n/a	32	n/a	n/a
362.134430	0.982940	dec_social_high	0.982940	32	n/a	16
362.134430	0.982940	dec_social_high_accept	0.982940	32	accept	16
371.071560	2	cue_social	n/a	16	n/a	n/a
371.071560	2	cue_social_low	n/a	16	n/a	n/a
373.000270	1.151075	dec_social_low	1.151075	16	n/a	2
373.000270	1.151075	dec_social_low_reject	1.151075	16	reject	2
