onset	duration	trial_type	response_time	Endowment	Decision	Offer
4.506173	2	cue_nonsocial	n/a	16	n/a	n/a
4.506173	2	cue_nonsocial_low	n/a	16	n/a	n/a
6.511401	2.533816	dec_nonsocial_low	2.533816	16	n/a	2
6.511401	2.533816	dec_nonsocial_low_reject	2.533816	16	reject	2
12.156139	2	cue_nonsocial	n/a	16	n/a	n/a
12.156139	2	cue_nonsocial_low	n/a	16	n/a	n/a
14.162060	2.066355	dec_nonsocial_low	2.066355	16	n/a	1
14.162060	2.066355	dec_nonsocial_low_reject	2.066355	16	reject	1
18.990227	2	cue_nonsocial	n/a	16	n/a	n/a
18.990227	2	cue_nonsocial_low	n/a	16	n/a	n/a
20.994865	1.300929	dec_nonsocial_low	1.300929	16	n/a	2
20.994865	1.300929	dec_nonsocial_low_accept	1.300929	16	accept	2
25.823248	2	cue_nonsocial	n/a	16	n/a	n/a
25.823248	2	cue_nonsocial_low	n/a	16	n/a	n/a
27.829750	1.365548	dec_nonsocial_low	1.365548	16	n/a	2
27.829750	1.365548	dec_nonsocial_low_accept	1.365548	16	accept	2
32.762700	2	cue_social	n/a	32	n/a	n/a
32.762700	2	cue_social_high	n/a	32	n/a	n/a
34.662010	0.950264	dec_social_high	0.950264	32	n/a	16
34.662010	0.950264	dec_social_high_accept	0.950264	32	accept	16
39.490047	2	cue_nonsocial	n/a	32	n/a	n/a
39.490047	2	cue_nonsocial_high	n/a	32	n/a	n/a
41.496243	1.665784	dec_nonsocial_high	1.665784	32	n/a	8
41.496243	1.665784	dec_nonsocial_high_reject	1.665784	32	reject	8
47.240574	2	cue_social	n/a	16	n/a	n/a
47.240574	2	cue_social_low	n/a	16	n/a	n/a
49.145184	1.634672	dec_social_low	1.634672	16	n/a	4
49.145184	1.634672	dec_social_low_reject	1.634672	16	reject	4
54.079243	2	cue_social	n/a	16	n/a	n/a
54.079243	2	cue_social_low	n/a	16	n/a	n/a
55.979706	0.749677	dec_social_low	0.749677	16	n/a	8
55.979706	0.749677	dec_social_low_accept	0.749677	16	accept	8
61.717796	2	cue_social	n/a	16	n/a	n/a
61.717796	2	cue_social_low	n/a	16	n/a	n/a
63.629665	1.416438	dec_social_low	1.416438	16	n/a	2
63.629665	1.416438	dec_social_low_reject	1.416438	16	reject	2
68.457535	2	cue_nonsocial	n/a	16	n/a	n/a
68.457535	2	cue_nonsocial_low	n/a	16	n/a	n/a
70.463486	1.149410	dec_nonsocial_low	1.149410	16	n/a	8
70.463486	1.149410	dec_nonsocial_low_accept	1.149410	16	accept	8
75.391780	2	cue_social	n/a	32	n/a	n/a
75.391780	2	cue_social_high	n/a	32	n/a	n/a
77.296646	1.249919	dec_social_high	1.249919	32	n/a	2
77.296646	1.249919	dec_social_high_reject	1.249919	32	reject	2
86.262930	2	cue_social	n/a	16	n/a	n/a
86.262930	2	cue_social_low	n/a	16	n/a	n/a
88.163550	1.115594	dec_social_low	1.115594	16	n/a	1
88.163550	1.115594	dec_social_low_reject	1.115594	16	reject	1
95.424500	2	cue_nonsocial	n/a	32	n/a	n/a
95.424500	2	cue_nonsocial_high	n/a	32	n/a	n/a
97.430350	1.032949	dec_nonsocial_high	1.032949	32	n/a	8
97.430350	1.032949	dec_nonsocial_high_accept	1.032949	32	accept	8
102.348480	2	cue_social	n/a	16	n/a	n/a
102.348480	2	cue_social_low	n/a	16	n/a	n/a
104.263336	1.015976	dec_social_low	1.015976	16	n/a	1
104.263336	1.015976	dec_social_low_reject	1.015976	16	reject	1
109.090690	2	cue_nonsocial	n/a	32	n/a	n/a
109.090690	2	cue_nonsocial_high	n/a	32	n/a	n/a
111.096504	1.500754	dec_nonsocial_high	1.500754	32	n/a	16
111.096504	1.500754	dec_nonsocial_high_accept	1.500754	32	accept	16
116.741120	2	cue_nonsocial	n/a	16	n/a	n/a
116.741120	2	cue_nonsocial_low	n/a	16	n/a	n/a
118.746660	0.966256	dec_nonsocial_low	0.966256	16	n/a	4
118.746660	0.966256	dec_nonsocial_low_accept	0.966256	16	accept	4
124.464330	2	cue_social	n/a	32	n/a	n/a
124.464330	2	cue_social_high	n/a	32	n/a	n/a
126.396620	1.099505	dec_social_high	1.099505	32	n/a	3
126.396620	1.099505	dec_social_high_reject	1.099505	32	reject	3
131.309800	2	cue_social	n/a	32	n/a	n/a
131.309800	2	cue_social_high	n/a	32	n/a	n/a
133.230560	0.966230	dec_social_high	0.966230	32	n/a	3
133.230560	0.966230	dec_social_high_reject	0.966230	32	reject	3
140.580870	2	cue_social	n/a	32	n/a	n/a
140.580870	2	cue_social_high	n/a	32	n/a	n/a
142.480620	0.816188	dec_social_high	0.816188	32	n/a	3
142.480620	0.816188	dec_social_high_reject	0.816188	32	reject	3
148.124450	2	cue_nonsocial	n/a	16	n/a	n/a
148.124450	2	cue_nonsocial_low	n/a	16	n/a	n/a
150.129460	1.017511	dec_nonsocial_low	1.017511	16	n/a	8
150.129460	1.017511	dec_nonsocial_low_accept	1.017511	16	accept	8
155.045670	2	cue_social	n/a	16	n/a	n/a
155.045670	2	cue_social_low	n/a	16	n/a	n/a
156.963790	0.683209	dec_social_low	0.683209	16	n/a	8
156.963790	0.683209	dec_social_low_accept	0.683209	16	accept	8
161.793300	2	cue_nonsocial	n/a	32	n/a	n/a
161.793300	2	cue_nonsocial_high	n/a	32	n/a	n/a
163.797680	0.916205	dec_nonsocial_high	0.916205	32	n/a	3
163.797680	0.916205	dec_nonsocial_high_reject	0.916205	32	reject	3
169.441420	2	cue_nonsocial	n/a	32	n/a	n/a
169.441420	2	cue_nonsocial_high	n/a	32	n/a	n/a
171.447700	0.966063	dec_nonsocial_high	0.966063	32	n/a	16
171.447700	0.966063	dec_nonsocial_high_accept	0.966063	32	accept	16
176.275000	2	cue_nonsocial	n/a	32	n/a	n/a
176.275000	2	cue_nonsocial_high	n/a	32	n/a	n/a
178.280610	1.150148	dec_nonsocial_high	1.150148	32	n/a	2
178.280610	1.150148	dec_nonsocial_high_reject	1.150148	32	reject	2
187.238850	2	cue_social	n/a	16	n/a	n/a
187.238850	2	cue_social_low	n/a	16	n/a	n/a
189.147500	0.833249	dec_social_low	0.833249	16	n/a	8
189.147500	0.833249	dec_social_low_accept	0.833249	16	accept	8
199.711150	2	cue_social	n/a	16	n/a	n/a
199.711150	2	cue_social_low	n/a	16	n/a	n/a
201.630020	1.150895	dec_social_low	1.150895	16	n/a	1
201.630020	1.150895	dec_social_low_reject	1.150895	16	reject	1
206.535320	2	cue_social	n/a	32	n/a	n/a
206.535320	2	cue_social_high	n/a	32	n/a	n/a
208.464370	1.550088	dec_social_high	1.550088	32	n/a	8
208.464370	1.550088	dec_social_high_accept	1.550088	32	accept	8
215.708920	2	cue_nonsocial	n/a	32	n/a	n/a
215.708920	2	cue_nonsocial_high	n/a	32	n/a	n/a
217.714580	0.899727	dec_nonsocial_high	0.899727	32	n/a	8
217.714580	0.899727	dec_nonsocial_high_accept	0.899727	32	accept	8
225.084080	2	cue_social	n/a	32	n/a	n/a
225.084080	2	cue_social_high	n/a	32	n/a	n/a
226.963490	1.150918	dec_social_high	1.150918	32	n/a	3
226.963490	1.150918	dec_social_high_reject	1.150918	32	reject	3
231.792080	2	cue_nonsocial	n/a	32	n/a	n/a
231.792080	2	cue_nonsocial_high	n/a	32	n/a	n/a
233.797960	0.950640	dec_nonsocial_high	0.950640	32	n/a	16
233.797960	0.950640	dec_nonsocial_high_accept	0.950640	32	accept	16
239.518430	2	cue_social	n/a	32	n/a	n/a
239.518430	2	cue_social_high	n/a	32	n/a	n/a
241.447660	1.317147	dec_social_high	1.317147	32	n/a	2
241.447660	1.317147	dec_social_high_reject	1.317147	32	reject	2
246.300220	2	cue_nonsocial	n/a	16	n/a	n/a
246.300220	2	cue_nonsocial_low	n/a	16	n/a	n/a
248.281570	1.032753	dec_nonsocial_low	1.032753	16	n/a	1
248.281570	1.032753	dec_nonsocial_low_reject	1.032753	16	reject	1
255.526140	2	cue_nonsocial	n/a	16	n/a	n/a
255.526140	2	cue_nonsocial_low	n/a	16	n/a	n/a
257.532070	1.299420	dec_nonsocial_low	1.299420	16	n/a	4
257.532070	1.299420	dec_nonsocial_low_reject	1.299420	16	reject	4
264.776900	2	cue_nonsocial	n/a	16	n/a	n/a
264.776900	2	cue_nonsocial_low	n/a	16	n/a	n/a
266.781600	0.983813	dec_nonsocial_low	0.983813	16	n/a	2
266.781600	0.983813	dec_nonsocial_low_reject	0.983813	16	reject	2
271.696700	2	cue_social	n/a	32	n/a	n/a
271.696700	2	cue_social_high	n/a	32	n/a	n/a
273.615400	0.916091	dec_social_high	0.916091	32	n/a	16
273.615400	0.916091	dec_social_high_accept	0.916091	32	accept	16
278.516020	2	cue_social	n/a	16	n/a	n/a
278.516020	2	cue_social_low	n/a	16	n/a	n/a
280.447940	0.967158	dec_social_low	0.967158	16	n/a	2
280.447940	0.967158	dec_social_low_reject	0.967158	16	reject	2
287.708300	2	cue_nonsocial	n/a	16	n/a	n/a
287.708300	2	cue_nonsocial_low	n/a	16	n/a	n/a
289.699370	1.032631	dec_nonsocial_low	1.032631	16	n/a	1
289.699370	1.032631	dec_nonsocial_low_reject	1.032631	16	reject	1
294.600340	2	cue_social	n/a	32	n/a	n/a
294.600340	2	cue_social_high	n/a	32	n/a	n/a
296.531000	1.717565	dec_social_high	1.717565	32	n/a	8
296.531000	1.717565	dec_social_high_accept	1.717565	32	accept	8
302.176240	2	cue_nonsocial	n/a	16	n/a	n/a
302.176240	2	cue_nonsocial_low	n/a	16	n/a	n/a
304.182130	1.016770	dec_nonsocial_low	1.016770	16	n/a	1
304.182130	1.016770	dec_nonsocial_low_reject	1.016770	16	reject	1
309.904200	2	cue_social	n/a	16	n/a	n/a
309.904200	2	cue_social_low	n/a	16	n/a	n/a
311.831400	2.333528	dec_social_low	2.333528	16	n/a	4
311.831400	2.333528	dec_social_low_reject	2.333528	16	reject	4
316.749900	2	cue_social	n/a	16	n/a	n/a
316.749900	2	cue_social_low	n/a	16	n/a	n/a
318.665560	0.883352	dec_social_low	0.883352	16	n/a	8
318.665560	0.883352	dec_social_low_accept	0.883352	16	accept	8
323.493500	2	cue_nonsocial	n/a	32	n/a	n/a
323.493500	2	cue_nonsocial_high	n/a	32	n/a	n/a
325.499500	0.816107	dec_nonsocial_high	0.816107	32	n/a	16
325.499500	0.816107	dec_nonsocial_high_accept	0.816107	32	accept	16
330.326570	2	cue_nonsocial	n/a	32	n/a	n/a
330.326570	2	cue_nonsocial_high	n/a	32	n/a	n/a
332.332950	0.899894	dec_nonsocial_high	0.899894	32	n/a	3
332.332950	0.899894	dec_nonsocial_high_reject	0.899894	32	reject	3
341.274480	2	cue_social	n/a	16	n/a	n/a
341.274480	2	cue_social_low	n/a	16	n/a	n/a
343.198360	1.433504	dec_social_low	1.433504	16	n/a	4
343.198360	1.433504	dec_social_low_reject	1.433504	16	reject	4
348.116120	2	cue_social	n/a	16	n/a	n/a
348.116120	2	cue_social_low	n/a	16	n/a	n/a
350.032600	0.916074	dec_social_low	0.916074	16	n/a	4
350.032600	0.916074	dec_social_low_reject	0.916074	16	reject	4
355.676820	2	cue_nonsocial	n/a	16	n/a	n/a
355.676820	2	cue_nonsocial_low	n/a	16	n/a	n/a
357.682620	1.316436	dec_nonsocial_low	1.316436	16	n/a	1
357.682620	1.316436	dec_nonsocial_low_reject	1.316436	16	reject	1
362.510350	2	cue_nonsocial	n/a	16	n/a	n/a
362.510350	2	cue_nonsocial_low	n/a	16	n/a	n/a
364.515800	1.083674	dec_nonsocial_low	1.083674	16	n/a	4
364.515800	1.083674	dec_nonsocial_low_reject	1.083674	16	reject	4
370.266360	2	cue_social	n/a	32	n/a	n/a
370.266360	2	cue_social_high	n/a	32	n/a	n/a
372.165800	1.150996	dec_social_high	1.150996	32	n/a	2
372.165800	1.150996	dec_social_high_reject	1.150996	32	reject	2
