onset	duration	trial_type	response_time	Endowment	Decision	Offer
4.594281	2	cue_social	n/a	32	n/a	n/a
4.594281	2	cue_social_high	n/a	32	n/a	n/a
6.517532	1.218529	dec_social_high	1.218529	32	n/a	8
6.517532	1.218529	dec_social_high_accept	1.218529	32	accept	8
11.454363	2	cue_social	n/a	16	n/a	n/a
11.454363	2	cue_social_low	n/a	16	n/a	n/a
13.352094	1.332745	dec_social_low	1.332745	16	n/a	1
13.352094	1.332745	dec_social_low_accept	1.332745	16	accept	1
20.613535	2	cue_nonsocial	n/a	32	n/a	n/a
20.613535	2	cue_nonsocial_high	n/a	32	n/a	n/a
22.619156	1.164981	dec_nonsocial_high	1.164981	32	n/a	2
22.619156	1.164981	dec_nonsocial_high_accept	1.164981	32	accept	2
27.445680	2	cue_nonsocial	n/a	16	n/a	n/a
27.445680	2	cue_nonsocial_low	n/a	16	n/a	n/a
29.452210	0.983323	dec_nonsocial_low	0.983323	16	n/a	4
29.452210	0.983323	dec_nonsocial_low_accept	0.983323	16	accept	4
34.279408	2	cue_nonsocial	n/a	32	n/a	n/a
34.279408	2	cue_nonsocial_high	n/a	32	n/a	n/a
36.284810	1.083826	dec_nonsocial_high	1.083826	32	n/a	16
36.284810	1.083826	dec_nonsocial_high_accept	1.083826	32	accept	16
43.539670	2	cue_social	n/a	16	n/a	n/a
43.539670	2	cue_social_low	n/a	16	n/a	n/a
45.534813	0.900620	dec_social_low	0.900620	16	n/a	8
45.534813	0.900620	dec_social_low_accept	0.900620	16	accept	8
52.880740	2	cue_social	n/a	32	n/a	n/a
52.880740	2	cue_social_high	n/a	32	n/a	n/a
54.785435	1.033436	dec_social_high	1.033436	32	n/a	16
54.785435	1.033436	dec_social_high_accept	1.033436	32	accept	16
60.518147	2	cue_social	n/a	16	n/a	n/a
60.518147	2	cue_social_low	n/a	16	n/a	n/a
62.435005	0.950301	dec_social_low	0.950301	16	n/a	4
62.435005	0.950301	dec_social_low_accept	0.950301	16	accept	4
69.679450	2	cue_nonsocial	n/a	16	n/a	n/a
69.679450	2	cue_nonsocial_low	n/a	16	n/a	n/a
71.686264	1.116200	dec_nonsocial_low	1.116200	16	n/a	1
71.686264	1.116200	dec_nonsocial_low_accept	1.116200	16	accept	1
76.594940	2	cue_social	n/a	16	n/a	n/a
76.594940	2	cue_social_low	n/a	16	n/a	n/a
78.517970	1.101061	dec_social_low	1.101061	16	n/a	4
78.517970	1.101061	dec_social_low_accept	1.101061	16	accept	4
83.347010	2	cue_nonsocial	n/a	16	n/a	n/a
83.347010	2	cue_nonsocial_low	n/a	16	n/a	n/a
85.352380	1.200480	dec_nonsocial_low	1.200480	16	n/a	2
85.352380	1.200480	dec_nonsocial_low_accept	1.200480	16	accept	2
90.179910	2	cue_nonsocial	n/a	32	n/a	n/a
90.179910	2	cue_nonsocial_high	n/a	32	n/a	n/a
92.185730	1.150131	dec_nonsocial_high	1.150131	32	n/a	8
92.185730	1.150131	dec_nonsocial_high_accept	1.150131	32	accept	8
97.813780	2	cue_nonsocial	n/a	32	n/a	n/a
97.813780	2	cue_nonsocial_high	n/a	32	n/a	n/a
99.819380	0.982949	dec_nonsocial_high	0.982949	32	n/a	2
99.819380	0.982949	dec_nonsocial_high_accept	0.982949	32	accept	2
108.697390	2	cue_nonsocial	n/a	16	n/a	n/a
108.697390	2	cue_nonsocial_low	n/a	16	n/a	n/a
110.702620	1.282955	dec_nonsocial_low	1.282955	16	n/a	1
110.702620	1.282955	dec_nonsocial_low_accept	1.282955	16	accept	1
115.608406	2	cue_social	n/a	32	n/a	n/a
115.608406	2	cue_social_high	n/a	32	n/a	n/a
117.535830	1.066432	dec_social_high	1.066432	32	n/a	16
117.535830	1.066432	dec_social_high_accept	1.066432	32	accept	16
122.450930	2	cue_social	n/a	16	n/a	n/a
122.450930	2	cue_social_low	n/a	16	n/a	n/a
124.369350	0.833133	dec_social_low	0.833133	16	n/a	4
124.369350	0.833133	dec_social_low_accept	0.833133	16	accept	4
129.302540	2	cue_social	n/a	32	n/a	n/a
129.302540	2	cue_social_high	n/a	32	n/a	n/a
131.202620	1.250131	dec_social_high	1.250131	32	n/a	3
131.202620	1.250131	dec_social_high_accept	1.250131	32	accept	3
136.154570	2	cue_social	n/a	32	n/a	n/a
136.154570	2	cue_social_high	n/a	32	n/a	n/a
138.035030	1.001414	dec_social_high	1.001414	32	n/a	16
138.035030	1.001414	dec_social_high_accept	1.001414	32	accept	16
145.280470	2	cue_nonsocial	n/a	16	n/a	n/a
145.280470	2	cue_nonsocial_low	n/a	16	n/a	n/a
147.286320	0.783404	dec_nonsocial_low	0.783404	16	n/a	8
147.286320	0.783404	dec_nonsocial_low_accept	0.783404	16	accept	8
152.930760	2	cue_nonsocial	n/a	16	n/a	n/a
152.930760	2	cue_nonsocial_low	n/a	16	n/a	n/a
154.935970	0.916784	dec_nonsocial_low	0.916784	16	n/a	1
154.935970	0.916784	dec_nonsocial_low_accept	0.916784	16	accept	1
159.814960	2	cue_social	n/a	32	n/a	n/a
159.814960	2	cue_social_high	n/a	32	n/a	n/a
161.768840	1.250864	dec_social_high	1.250864	32	n/a	3
161.768840	1.250864	dec_social_high_accept	1.250864	32	accept	3
170.630690	2	cue_nonsocial	n/a	16	n/a	n/a
170.630690	2	cue_nonsocial_low	n/a	16	n/a	n/a
172.636580	1.116559	dec_nonsocial_low	1.116559	16	n/a	2
172.636580	1.116559	dec_nonsocial_low_accept	1.116559	16	accept	2
178.281110	2	cue_nonsocial	n/a	16	n/a	n/a
178.281110	2	cue_nonsocial_low	n/a	16	n/a	n/a
180.287460	1.232711	dec_nonsocial_low	1.232711	16	n/a	8
180.287460	1.232711	dec_nonsocial_low_accept	1.232711	16	accept	8
185.999770	2	cue_social	n/a	16	n/a	n/a
185.999770	2	cue_social_low	n/a	16	n/a	n/a
187.936110	0.934445	dec_social_low	0.934445	16	n/a	8
187.936110	0.934445	dec_social_low_accept	0.934445	16	accept	8
193.581010	2	cue_nonsocial	n/a	32	n/a	n/a
193.581010	2	cue_nonsocial_high	n/a	32	n/a	n/a
195.587160	0.999444	dec_nonsocial_high	0.999444	32	n/a	8
195.587160	0.999444	dec_nonsocial_high_accept	0.999444	32	accept	8
201.231000	2	cue_nonsocial	n/a	32	n/a	n/a
201.231000	2	cue_nonsocial_high	n/a	32	n/a	n/a
203.235890	0.950942	dec_nonsocial_high	0.950942	32	n/a	2
203.235890	0.950942	dec_nonsocial_high_accept	0.950942	32	accept	2
208.064820	2	cue_nonsocial	n/a	32	n/a	n/a
208.064820	2	cue_nonsocial_high	n/a	32	n/a	n/a
210.071230	0.999121	dec_nonsocial_high	0.999121	32	n/a	8
210.071230	0.999121	dec_nonsocial_high_accept	0.999121	32	accept	8
217.407670	2	cue_social	n/a	16	n/a	n/a
217.407670	2	cue_social_low	n/a	16	n/a	n/a
219.320770	0.999557	dec_social_low	0.999557	16	n/a	8
219.320770	0.999557	dec_social_low_accept	0.999557	16	accept	8
224.147840	2	cue_nonsocial	n/a	32	n/a	n/a
224.147840	2	cue_nonsocial_high	n/a	32	n/a	n/a
226.154540	1.015446	dec_nonsocial_high	1.015446	32	n/a	3
226.154540	1.015446	dec_nonsocial_high_accept	1.015446	32	accept	3
231.867430	2	cue_social	n/a	16	n/a	n/a
231.867430	2	cue_social_low	n/a	16	n/a	n/a
233.804400	1.349383	dec_social_low	1.349383	16	n/a	2
233.804400	1.349383	dec_social_low_accept	1.349383	16	accept	2
239.541470	2	cue_social	n/a	16	n/a	n/a
239.541470	2	cue_social_low	n/a	16	n/a	n/a
241.453740	1.149974	dec_social_low	1.149974	16	n/a	2
241.453740	1.149974	dec_social_low_accept	1.149974	16	accept	2
250.314850	2	cue_nonsocial	n/a	32	n/a	n/a
250.314850	2	cue_nonsocial_high	n/a	32	n/a	n/a
252.320600	0.900301	dec_nonsocial_high	0.900301	32	n/a	16
252.320600	0.900301	dec_nonsocial_high_accept	0.900301	32	accept	16
257.148470	2	cue_nonsocial	n/a	16	n/a	n/a
257.148470	2	cue_nonsocial_low	n/a	16	n/a	n/a
259.154020	0.683529	dec_nonsocial_low	0.683529	16	n/a	2
259.154020	0.683529	dec_nonsocial_low_accept	0.683529	16	accept	2
264.854580	2	cue_social	n/a	16	n/a	n/a
264.854580	2	cue_social_low	n/a	16	n/a	n/a
266.804660	1.315774	dec_social_low	1.315774	16	n/a	1
266.804660	1.315774	dec_social_low_accept	1.315774	16	accept	1
272.448400	2	cue_nonsocial	n/a	32	n/a	n/a
272.448400	2	cue_nonsocial_high	n/a	32	n/a	n/a
274.454250	1.033397	dec_nonsocial_high	1.033397	32	n/a	3
274.454250	1.033397	dec_nonsocial_high_accept	1.033397	32	accept	3
279.346070	2	cue_social	n/a	32	n/a	n/a
279.346070	2	cue_social_high	n/a	32	n/a	n/a
281.287660	1.084013	dec_social_high	1.084013	32	n/a	2
281.287660	1.084013	dec_social_high_accept	1.084013	32	accept	2
286.115000	2	cue_nonsocial	n/a	16	n/a	n/a
286.115000	2	cue_nonsocial_low	n/a	16	n/a	n/a
288.121400	0.899963	dec_nonsocial_low	0.899963	16	n/a	4
288.121400	0.899963	dec_nonsocial_low_accept	0.899963	16	accept	4
292.973000	2	cue_social	n/a	16	n/a	n/a
292.973000	2	cue_social_low	n/a	16	n/a	n/a
294.953950	0.967358	dec_social_low	0.967358	16	n/a	2
294.953950	0.967358	dec_social_low_accept	0.967358	16	accept	2
299.866420	2	cue_social	n/a	32	n/a	n/a
299.866420	2	cue_social_high	n/a	32	n/a	n/a
301.786680	0.951430	dec_social_high	0.951430	32	n/a	2
301.786680	0.951430	dec_social_high_accept	0.951430	32	accept	2
306.615700	2	cue_nonsocial	n/a	32	n/a	n/a
306.615700	2	cue_nonsocial_high	n/a	32	n/a	n/a
308.621340	1.116159	dec_nonsocial_high	1.116159	32	n/a	16
308.621340	1.116159	dec_nonsocial_high_accept	1.116159	32	accept	16
313.448820	2	cue_nonsocial	n/a	16	n/a	n/a
313.448820	2	cue_nonsocial_low	n/a	16	n/a	n/a
315.455170	1.099669	dec_nonsocial_low	1.099669	16	n/a	8
315.455170	1.099669	dec_nonsocial_low_accept	1.099669	16	accept	8
320.378570	2	cue_social	n/a	16	n/a	n/a
320.378570	2	cue_social_low	n/a	16	n/a	n/a
322.288730	1.015812	dec_social_low	1.015812	16	n/a	1
322.288730	1.015812	dec_social_low_accept	1.015812	16	accept	1
327.932160	2	cue_nonsocial	n/a	16	n/a	n/a
327.932160	2	cue_nonsocial_low	n/a	16	n/a	n/a
329.938230	0.799880	dec_nonsocial_low	0.799880	16	n/a	2
329.938230	0.799880	dec_nonsocial_low_accept	0.799880	16	accept	2
334.879400	2	cue_social	n/a	16	n/a	n/a
334.879400	2	cue_social_low	n/a	16	n/a	n/a
336.770600	0.950857	dec_social_low	0.950857	16	n/a	1
336.770600	0.950857	dec_social_low_accept	0.950857	16	accept	1
344.108370	2	cue_social	n/a	32	n/a	n/a
344.108370	2	cue_social_high	n/a	32	n/a	n/a
346.022060	0.866660	dec_social_high	0.866660	32	n/a	8
346.022060	0.866660	dec_social_high_accept	0.866660	32	accept	8
356.565030	2	cue_social	n/a	16	n/a	n/a
356.565030	2	cue_social_low	n/a	16	n/a	n/a
358.505220	1.183320	dec_social_low	1.183320	16	n/a	4
358.505220	1.183320	dec_social_low_accept	1.183320	16	accept	4
364.149780	2	cue_nonsocial	n/a	16	n/a	n/a
364.149780	2	cue_nonsocial_low	n/a	16	n/a	n/a
366.154700	1.200184	dec_nonsocial_low	1.200184	16	n/a	4
366.154700	1.200184	dec_nonsocial_low_accept	1.200184	16	accept	4
371.066960	2	cue_social	n/a	16	n/a	n/a
371.066960	2	cue_social_low	n/a	16	n/a	n/a
372.988830	0.782679	dec_social_low	0.782679	16	n/a	2
372.988830	0.782679	dec_social_low_accept	0.782679	16	accept	2
