onset	duration	trial_type	response_time	Endowment	Decision	Offer
4.619270	2	cue_social	n/a	16	n/a	n/a
4.619270	2	cue_social_low	n/a	16	n/a	n/a
6.528155	1.350405	dec_social_low	1.350405	16	n/a	4
6.528155	1.350405	dec_social_low_accept	1.350405	16	accept	4
12.161984	2	cue_social	n/a	32	n/a	n/a
12.161984	2	cue_social_high	n/a	32	n/a	n/a
14.178400	0.933215	dec_social_high	0.933215	32	n/a	8
14.178400	0.933215	dec_social_high_accept	0.933215	32	accept	8
19.822370	2	cue_nonsocial	n/a	16	n/a	n/a
19.822370	2	cue_nonsocial_low	n/a	16	n/a	n/a
21.828035	0.800118	dec_nonsocial_low	0.800118	16	n/a	4
21.828035	0.800118	dec_nonsocial_low_accept	0.800118	16	accept	4
27.473616	2	cue_nonsocial	n/a	16	n/a	n/a
27.473616	2	cue_nonsocial_low	n/a	16	n/a	n/a
29.478476	1.383074	dec_nonsocial_low	1.383074	16	n/a	2
29.478476	1.383074	dec_nonsocial_low_accept	1.383074	16	accept	2
35.123020	2	cue_nonsocial	n/a	32	n/a	n/a
35.123020	2	cue_nonsocial_high	n/a	32	n/a	n/a
37.127970	0.750594	dec_nonsocial_high	0.750594	32	n/a	16
37.127970	0.750594	dec_nonsocial_high_reject	0.750594	32	reject	16
42.755825	2	cue_nonsocial	n/a	32	n/a	n/a
42.755825	2	cue_nonsocial_high	n/a	32	n/a	n/a
44.762974	1.331527	dec_nonsocial_high	1.331527	32	n/a	3
44.762974	1.331527	dec_nonsocial_high_accept	1.331527	32	accept	3
49.675198	2	cue_social	n/a	16	n/a	n/a
49.675198	2	cue_social_low	n/a	16	n/a	n/a
51.594284	1.183975	dec_social_low	1.183975	16	n/a	2
51.594284	1.183975	dec_social_low_accept	1.183975	16	accept	2
57.248950	2	cue_social	n/a	32	n/a	n/a
57.248950	2	cue_social_high	n/a	32	n/a	n/a
59.245705	1.182559	dec_social_high	1.182559	32	n/a	3
59.245705	1.182559	dec_social_high_accept	1.182559	32	accept	3
64.084700	2	cue_social	n/a	16	n/a	n/a
64.084700	2	cue_social_low	n/a	16	n/a	n/a
66.078910	0.850134	dec_social_low	0.850134	16	n/a	1
66.078910	0.850134	dec_social_low_reject	0.850134	16	reject	1
70.934960	2	cue_social	n/a	16	n/a	n/a
70.934960	2	cue_social_low	n/a	16	n/a	n/a
72.911230	0.884021	dec_social_low	0.884021	16	n/a	8
72.911230	0.884021	dec_social_low_accept	0.884021	16	accept	8
77.742220	2	cue_nonsocial	n/a	16	n/a	n/a
77.742220	2	cue_nonsocial_low	n/a	16	n/a	n/a
79.745400	1.050097	dec_nonsocial_low	1.050097	16	n/a	1
79.745400	1.050097	dec_nonsocial_low_reject	1.050097	16	reject	1
88.607970	2	cue_nonsocial	n/a	32	n/a	n/a
88.607970	2	cue_nonsocial_high	n/a	32	n/a	n/a
90.612740	1.065473	dec_nonsocial_high	1.065473	32	n/a	3
90.612740	1.065473	dec_nonsocial_high_accept	1.065473	32	accept	3
97.874310	2	cue_nonsocial	n/a	16	n/a	n/a
97.874310	2	cue_nonsocial_low	n/a	16	n/a	n/a
99.879360	1.333077	dec_nonsocial_low	1.333077	16	n/a	4
99.879360	1.333077	dec_nonsocial_low_accept	1.333077	16	accept	4
107.128630	2	cue_social	n/a	32	n/a	n/a
107.128630	2	cue_social_high	n/a	32	n/a	n/a
109.130516	1.031805	dec_social_high	1.031805	32	n/a	3
109.130516	1.031805	dec_social_high_accept	1.031805	32	accept	3
113.987020	2	cue_social	n/a	16	n/a	n/a
113.987020	2	cue_social_low	n/a	16	n/a	n/a
115.961750	1.451120	dec_social_low	1.451120	16	n/a	1
115.961750	1.451120	dec_social_low_accept	1.451120	16	accept	1
123.207306	2	cue_nonsocial	n/a	32	n/a	n/a
123.207306	2	cue_nonsocial_high	n/a	32	n/a	n/a
125.212520	0.950259	dec_nonsocial_high	0.950259	32	n/a	8
125.212520	0.950259	dec_nonsocial_high_accept	0.950259	32	accept	8
130.141880	2	cue_social	n/a	32	n/a	n/a
130.141880	2	cue_social_high	n/a	32	n/a	n/a
132.046420	1.049982	dec_social_high	1.049982	32	n/a	16
132.046420	1.049982	dec_social_high_accept	1.049982	32	accept	16
136.887050	2	cue_social	n/a	16	n/a	n/a
136.887050	2	cue_social_low	n/a	16	n/a	n/a
138.879550	1.016216	dec_social_low	1.016216	16	n/a	2
138.879550	1.016216	dec_social_low_reject	1.016216	16	reject	2
143.732830	2	cue_social	n/a	32	n/a	n/a
143.732830	2	cue_social_high	n/a	32	n/a	n/a
145.712590	1.000315	dec_social_high	1.000315	32	n/a	3
145.712590	1.000315	dec_social_high_accept	1.000315	32	accept	3
154.573970	2	cue_nonsocial	n/a	32	n/a	n/a
154.573970	2	cue_nonsocial_high	n/a	32	n/a	n/a
156.580300	0.815907	dec_nonsocial_high	0.815907	32	n/a	16
156.580300	0.815907	dec_nonsocial_high_accept	0.815907	32	accept	16
165.542200	2	cue_social	n/a	32	n/a	n/a
165.542200	2	cue_social_high	n/a	32	n/a	n/a
167.446490	1.150464	dec_social_high	1.150464	32	n/a	2
167.446490	1.150464	dec_social_high_accept	1.150464	32	accept	2
172.275310	2	cue_nonsocial	n/a	32	n/a	n/a
172.275310	2	cue_nonsocial_high	n/a	32	n/a	n/a
174.280600	1.215874	dec_nonsocial_high	1.215874	32	n/a	2
174.280600	1.215874	dec_nonsocial_high_accept	1.215874	32	accept	2
181.542570	2	cue_nonsocial	n/a	32	n/a	n/a
181.542570	2	cue_nonsocial_high	n/a	32	n/a	n/a
183.547580	1.032771	dec_nonsocial_high	1.032771	32	n/a	2
183.547580	1.032771	dec_nonsocial_high_accept	1.032771	32	accept	2
190.808910	2	cue_nonsocial	n/a	32	n/a	n/a
190.808910	2	cue_nonsocial_high	n/a	32	n/a	n/a
192.813920	1.015621	dec_nonsocial_high	1.015621	32	n/a	8
192.813920	1.015621	dec_nonsocial_high_accept	1.015621	32	accept	8
197.642430	2	cue_nonsocial	n/a	16	n/a	n/a
197.642430	2	cue_nonsocial_low	n/a	16	n/a	n/a
199.647300	1.233092	dec_nonsocial_low	1.233092	16	n/a	8
199.647300	1.233092	dec_nonsocial_low_accept	1.233092	16	accept	8
204.586930	2	cue_social	n/a	32	n/a	n/a
204.586930	2	cue_social_high	n/a	32	n/a	n/a
206.480130	1.233163	dec_social_high	1.233163	32	n/a	16
206.480130	1.233163	dec_social_high_accept	1.233163	32	accept	16
211.423930	2	cue_social	n/a	32	n/a	n/a
211.423930	2	cue_social_high	n/a	32	n/a	n/a
213.314580	0.932788	dec_social_high	0.932788	32	n/a	3
213.314580	0.932788	dec_social_high_accept	0.932788	32	accept	3
218.269130	2	cue_social	n/a	32	n/a	n/a
218.269130	2	cue_social_high	n/a	32	n/a	n/a
220.147980	1.365924	dec_social_high	1.365924	32	n/a	2
220.147980	1.365924	dec_social_high_accept	1.365924	32	accept	2
224.975520	2	cue_nonsocial	n/a	16	n/a	n/a
224.975520	2	cue_nonsocial_low	n/a	16	n/a	n/a
226.980830	1.083293	dec_nonsocial_low	1.083293	16	n/a	8
226.980830	1.083293	dec_nonsocial_low_accept	1.083293	16	accept	8
231.809170	2	cue_nonsocial	n/a	32	n/a	n/a
231.809170	2	cue_nonsocial_high	n/a	32	n/a	n/a
233.815100	0.982492	dec_nonsocial_high	0.982492	32	n/a	3
233.815100	0.982492	dec_nonsocial_high_accept	0.982492	32	accept	3
238.763950	2	cue_social	n/a	16	n/a	n/a
238.763950	2	cue_social_low	n/a	16	n/a	n/a
240.647190	0.866995	dec_social_low	0.866995	16	n/a	8
240.647190	0.866995	dec_social_low_reject	0.866995	16	reject	8
245.500260	2	cue_social	n/a	32	n/a	n/a
245.500260	2	cue_social_high	n/a	32	n/a	n/a
247.480880	1.217230	dec_social_high	1.217230	32	n/a	8
247.480880	1.217230	dec_social_high_accept	1.217230	32	accept	8
252.309340	2	cue_nonsocial	n/a	32	n/a	n/a
252.309340	2	cue_nonsocial_high	n/a	32	n/a	n/a
254.313800	1.050602	dec_nonsocial_high	1.050602	32	n/a	16
254.313800	1.050602	dec_nonsocial_high_accept	1.050602	32	accept	16
259.958800	2	cue_nonsocial	n/a	32	n/a	n/a
259.958800	2	cue_nonsocial_high	n/a	32	n/a	n/a
261.965200	1.082377	dec_nonsocial_high	1.082377	32	n/a	3
261.965200	1.082377	dec_nonsocial_high_accept	1.082377	32	accept	3
266.819150	2	cue_social	n/a	16	n/a	n/a
266.819150	2	cue_social_low	n/a	16	n/a	n/a
268.798160	1.266460	dec_social_low	1.266460	16	n/a	1
268.798160	1.266460	dec_social_low_accept	1.266460	16	accept	1
279.276760	2	cue_nonsocial	n/a	32	n/a	n/a
279.276760	2	cue_nonsocial_high	n/a	32	n/a	n/a
281.281430	0.915734	dec_nonsocial_high	0.915734	32	n/a	3
281.281430	0.915734	dec_nonsocial_high_accept	0.915734	32	accept	3
286.109280	2	cue_nonsocial	n/a	32	n/a	n/a
286.109280	2	cue_nonsocial_high	n/a	32	n/a	n/a
288.114840	1.350380	dec_nonsocial_high	1.350380	32	n/a	8
288.114840	1.350380	dec_nonsocial_high_accept	1.350380	32	accept	8
293.052700	2	cue_social	n/a	16	n/a	n/a
293.052700	2	cue_social_low	n/a	16	n/a	n/a
294.947970	0.949992	dec_social_low	0.949992	16	n/a	8
294.947970	0.949992	dec_social_low_accept	0.949992	16	accept	8
299.896100	2	cue_social	n/a	32	n/a	n/a
299.896100	2	cue_social_high	n/a	32	n/a	n/a
301.780400	0.901293	dec_social_high	0.901293	32	n/a	16
301.780400	0.901293	dec_social_high_accept	0.901293	32	accept	16
307.440370	2	cue_social	n/a	32	n/a	n/a
307.440370	2	cue_social_high	n/a	32	n/a	n/a
309.432220	1.100063	dec_social_high	1.100063	32	n/a	8
309.432220	1.100063	dec_social_high_accept	1.100063	32	accept	8
315.076260	2	cue_social	n/a	32	n/a	n/a
315.076260	2	cue_social_high	n/a	32	n/a	n/a
317.081850	0.899596	dec_social_high	0.899596	32	n/a	8
317.081850	0.899596	dec_social_high_accept	0.899596	32	accept	8
321.909360	2	cue_nonsocial	n/a	16	n/a	n/a
321.909360	2	cue_nonsocial_low	n/a	16	n/a	n/a
323.915920	1.015260	dec_nonsocial_low	1.015260	16	n/a	4
323.915920	1.015260	dec_nonsocial_low_accept	1.015260	16	accept	4
329.559880	2	cue_nonsocial	n/a	16	n/a	n/a
329.559880	2	cue_nonsocial_low	n/a	16	n/a	n/a
331.565200	1.483176	dec_nonsocial_low	1.483176	16	n/a	1
331.565200	1.483176	dec_nonsocial_low_accept	1.483176	16	accept	1
337.210540	2	cue_nonsocial	n/a	32	n/a	n/a
337.210540	2	cue_nonsocial_high	n/a	32	n/a	n/a
339.215550	1.133182	dec_nonsocial_high	1.133182	32	n/a	2
339.215550	1.133182	dec_nonsocial_high_reject	1.133182	32	reject	2
346.460050	2	cue_nonsocial	n/a	32	n/a	n/a
346.460050	2	cue_nonsocial_high	n/a	32	n/a	n/a
348.466520	1.132686	dec_nonsocial_high	1.132686	32	n/a	16
348.466520	1.132686	dec_nonsocial_high_accept	1.132686	32	accept	16
354.204700	2	cue_social	n/a	16	n/a	n/a
354.204700	2	cue_social_low	n/a	16	n/a	n/a
356.115020	1.000564	dec_social_low	1.000564	16	n/a	4
356.115020	1.000564	dec_social_low_accept	1.000564	16	accept	4
361.072330	2	cue_social	n/a	16	n/a	n/a
361.072330	2	cue_social_low	n/a	16	n/a	n/a
362.948500	1.200208	dec_social_low	1.200208	16	n/a	1
362.948500	1.200208	dec_social_low_accept	1.200208	16	accept	1
370.193730	2	cue_nonsocial	n/a	32	n/a	n/a
370.193730	2	cue_nonsocial_high	n/a	32	n/a	n/a
372.199520	1.115520	dec_nonsocial_high	1.115520	32	n/a	2
372.199520	1.115520	dec_nonsocial_high_accept	1.115520	32	accept	2
