onset	duration	trial_type	response_time	Endowment	Decision	Offer
4.515253	2	cue_social	n/a	32	n/a	n/a
4.515253	2	cue_social_high	n/a	32	n/a	n/a
6.516919	1.415449	dec_social_high	1.415449	32	n/a	16
6.516919	1.415449	dec_social_high_accept	1.415449	32	accept	16
12.287802	2	cue_social	n/a	32	n/a	n/a
12.287802	2	cue_social_high	n/a	32	n/a	n/a
14.165501	1.117580	dec_social_high	1.117580	32	n/a	8
14.165501	1.117580	dec_social_high_accept	1.117580	32	accept	8
18.994476	2	cue_nonsocial	n/a	16	n/a	n/a
18.994476	2	cue_nonsocial_low	n/a	16	n/a	n/a
20.999474	1.083551	dec_nonsocial_low	1.083551	16	n/a	4
20.999474	1.083551	dec_nonsocial_low_accept	1.083551	16	accept	4
29.867378	2	cue_social	n/a	16	n/a	n/a
29.867378	2	cue_social_low	n/a	16	n/a	n/a
31.866995	1.415383	dec_social_low	1.415383	16	n/a	2
31.866995	1.415383	dec_social_low_accept	1.415383	16	accept	2
37.511250	2	cue_nonsocial	n/a	16	n/a	n/a
37.511250	2	cue_nonsocial_low	n/a	16	n/a	n/a
39.516860	1.415800	dec_nonsocial_low	1.415800	16	n/a	2
39.516860	1.415800	dec_nonsocial_low_accept	1.415800	16	accept	2
44.346170	2	cue_nonsocial	n/a	16	n/a	n/a
44.346170	2	cue_nonsocial_low	n/a	16	n/a	n/a
46.349860	1.683212	dec_nonsocial_low	1.683212	16	n/a	4
46.349860	1.683212	dec_nonsocial_low_accept	1.683212	16	accept	4
52.105198	2	cue_social	n/a	32	n/a	n/a
52.105198	2	cue_social_high	n/a	32	n/a	n/a
54.000114	0.799386	dec_social_high	0.799386	32	n/a	3
54.000114	0.799386	dec_social_high_accept	0.799386	32	accept	3
58.827150	2	cue_nonsocial	n/a	16	n/a	n/a
58.827150	2	cue_nonsocial_low	n/a	16	n/a	n/a
60.832780	1.350229	dec_nonsocial_low	1.350229	16	n/a	4
60.832780	1.350229	dec_nonsocial_low_accept	1.350229	16	accept	4
68.135820	2	cue_social	n/a	32	n/a	n/a
68.135820	2	cue_social_high	n/a	32	n/a	n/a
70.132760	1.500236	dec_social_high	1.500236	32	n/a	16
70.132760	1.500236	dec_social_high_accept	1.500236	32	accept	16
74.973710	2	cue_social	n/a	32	n/a	n/a
74.973710	2	cue_social_high	n/a	32	n/a	n/a
76.966880	1.299546	dec_social_high	1.299546	32	n/a	16
76.966880	1.299546	dec_social_high_accept	1.299546	32	accept	16
81.794150	2	cue_nonsocial	n/a	16	n/a	n/a
81.794150	2	cue_nonsocial_low	n/a	16	n/a	n/a
83.799640	1.133409	dec_nonsocial_low	1.133409	16	n/a	4
83.799640	1.133409	dec_nonsocial_low_accept	1.133409	16	accept	4
88.745026	2	cue_social	n/a	32	n/a	n/a
88.745026	2	cue_social_high	n/a	32	n/a	n/a
90.633000	1.249972	dec_social_high	1.249972	32	n/a	16
90.633000	1.249972	dec_social_high_accept	1.249972	32	accept	16
96.393845	2	cue_social	n/a	16	n/a	n/a
96.393845	2	cue_social_low	n/a	16	n/a	n/a
98.283330	1.065744	dec_social_low	1.065744	16	n/a	2
98.283330	1.065744	dec_social_low_accept	1.065744	16	accept	2
107.144820	2	cue_nonsocial	n/a	16	n/a	n/a
107.144820	2	cue_nonsocial_low	n/a	16	n/a	n/a
109.149580	1.482931	dec_nonsocial_low	1.482931	16	n/a	1
109.149580	1.482931	dec_nonsocial_low_accept	1.482931	16	accept	1
113.987080	2	cue_social	n/a	32	n/a	n/a
113.987080	2	cue_social_high	n/a	32	n/a	n/a
115.982735	1.316296	dec_social_high	1.316296	32	n/a	2
115.982735	1.316296	dec_social_high_accept	1.316296	32	accept	2
120.812270	2	cue_social	n/a	32	n/a	n/a
120.812270	2	cue_social_high	n/a	32	n/a	n/a
122.815930	1.866503	dec_social_high	1.866503	32	n/a	16
122.815930	1.866503	dec_social_high_accept	1.866503	32	accept	16
130.109510	2	cue_social	n/a	16	n/a	n/a
130.109510	2	cue_social_low	n/a	16	n/a	n/a
132.082920	1.650071	dec_social_low	1.650071	16	n/a	8
132.082920	1.650071	dec_social_low_accept	1.650071	16	accept	8
137.755600	2	cue_social	n/a	16	n/a	n/a
137.755600	2	cue_social_low	n/a	16	n/a	n/a
139.732060	1.883619	dec_social_low	1.883619	16	n/a	1
139.732060	1.883619	dec_social_low_accept	1.883619	16	accept	1
146.977870	2	cue_nonsocial	n/a	32	n/a	n/a
146.977870	2	cue_nonsocial_high	n/a	32	n/a	n/a
148.982990	1.366111	dec_nonsocial_high	1.366111	32	n/a	3
148.982990	1.366111	dec_nonsocial_high_accept	1.366111	32	accept	3
153.885930	2	cue_social	n/a	32	n/a	n/a
153.885930	2	cue_social_high	n/a	32	n/a	n/a
155.815380	1.817370	dec_social_high	1.817370	32	n/a	2
155.815380	1.817370	dec_social_high_accept	1.817370	32	accept	2
161.567980	2	cue_social	n/a	32	n/a	n/a
161.567980	2	cue_social_high	n/a	32	n/a	n/a
163.466580	1.183078	dec_social_high	1.183078	32	n/a	8
163.466580	1.183078	dec_social_high_accept	1.183078	32	accept	8
168.291890	2	cue_social	n/a	16	n/a	n/a
168.291890	2	cue_social_low	n/a	16	n/a	n/a
170.300380	0.915672	dec_social_low	0.915672	16	n/a	4
170.300380	0.915672	dec_social_low_accept	0.915672	16	accept	4
175.127000	2	cue_nonsocial	n/a	16	n/a	n/a
175.127000	2	cue_nonsocial_low	n/a	16	n/a	n/a
177.133470	0.865731	dec_nonsocial_low	0.865731	16	n/a	8
177.133470	0.865731	dec_nonsocial_low_accept	0.865731	16	accept	8
184.394870	2	cue_nonsocial	n/a	16	n/a	n/a
184.394870	2	cue_nonsocial_low	n/a	16	n/a	n/a
186.400040	0.649419	dec_nonsocial_low	0.649419	16	n/a	1
186.400040	0.649419	dec_nonsocial_low_accept	0.649419	16	accept	1
191.319580	2	cue_social	n/a	32	n/a	n/a
191.319580	2	cue_social_high	n/a	32	n/a	n/a
193.232670	2.366227	dec_social_high	2.366227	32	n/a	2
193.232670	2.366227	dec_social_high_accept	2.366227	32	accept	2
198.955140	2	cue_social	n/a	16	n/a	n/a
198.955140	2	cue_social_low	n/a	16	n/a	n/a
200.882020	1.567587	dec_social_low	1.567587	16	n/a	2
200.882020	1.567587	dec_social_low_accept	1.567587	16	accept	2
211.361220	2	cue_nonsocial	n/a	32	n/a	n/a
211.361220	2	cue_nonsocial_high	n/a	32	n/a	n/a
213.367160	0.865209	dec_nonsocial_high	0.865209	32	n/a	16
213.367160	0.865209	dec_nonsocial_high_accept	0.865209	32	accept	16
220.628460	2	cue_nonsocial	n/a	16	n/a	n/a
220.628460	2	cue_nonsocial_low	n/a	16	n/a	n/a
222.632450	1.267157	dec_nonsocial_low	1.267157	16	n/a	2
222.632450	1.267157	dec_nonsocial_low_accept	1.267157	16	accept	2
227.460680	2	cue_nonsocial	n/a	32	n/a	n/a
227.460680	2	cue_nonsocial_high	n/a	32	n/a	n/a
229.466770	1.049322	dec_nonsocial_high	1.049322	32	n/a	16
229.466770	1.049322	dec_nonsocial_high_accept	1.049322	32	accept	16
235.188060	2	cue_social	n/a	32	n/a	n/a
235.188060	2	cue_social_high	n/a	32	n/a	n/a
237.115620	2.050463	dec_social_high	2.050463	32	n/a	8
237.115620	2.050463	dec_social_high_accept	2.050463	32	accept	8
241.944800	2	cue_nonsocial	n/a	32	n/a	n/a
241.944800	2	cue_nonsocial_high	n/a	32	n/a	n/a
243.949130	1.250407	dec_nonsocial_high	1.250407	32	n/a	3
243.949130	1.250407	dec_nonsocial_high_accept	1.250407	32	accept	3
249.593540	2	cue_nonsocial	n/a	32	n/a	n/a
249.593540	2	cue_nonsocial_high	n/a	32	n/a	n/a
251.599620	0.765983	dec_nonsocial_high	0.765983	32	n/a	16
251.599620	0.765983	dec_nonsocial_high_accept	0.765983	32	accept	16
256.539920	2	cue_social	n/a	32	n/a	n/a
256.539920	2	cue_social_high	n/a	32	n/a	n/a
258.432600	3.7669463	missed_trial	n/a	32	n/a	n/a
263.261080	2	cue_nonsocial	n/a	32	n/a	n/a
263.261080	2	cue_nonsocial_high	n/a	32	n/a	n/a
265.266630	0.783048	dec_nonsocial_high	0.783048	32	n/a	8
265.266630	0.783048	dec_nonsocial_high_accept	0.783048	32	accept	8
270.093780	2	cue_nonsocial	n/a	32	n/a	n/a
270.093780	2	cue_nonsocial_high	n/a	32	n/a	n/a
272.100280	0.882389	dec_nonsocial_high	0.882389	32	n/a	2
272.100280	0.882389	dec_nonsocial_high_accept	0.882389	32	accept	2
279.457150	2	cue_social	n/a	16	n/a	n/a
279.457150	2	cue_social_low	n/a	16	n/a	n/a
281.349670	0.915967	dec_social_low	0.915967	16	n/a	2
281.349670	0.915967	dec_social_low_accept	0.915967	16	accept	2
286.177760	2	cue_nonsocial	n/a	32	n/a	n/a
286.177760	2	cue_nonsocial_high	n/a	32	n/a	n/a
288.183070	0.799297	dec_nonsocial_high	0.799297	32	n/a	8
288.183070	0.799297	dec_nonsocial_high_accept	0.799297	32	accept	8
293.898500	2	cue_social	n/a	32	n/a	n/a
293.898500	2	cue_social_high	n/a	32	n/a	n/a
295.832920	0.516586	dec_social_high	0.516586	32	n/a	8
295.832920	0.516586	dec_social_high_accept	0.516586	32	accept	8
301.477360	2	cue_nonsocial	n/a	32	n/a	n/a
301.477360	2	cue_nonsocial_high	n/a	32	n/a	n/a
303.483150	1.233077	dec_nonsocial_high	1.233077	32	n/a	2
303.483150	1.233077	dec_nonsocial_high_accept	1.233077	32	accept	2
308.311200	2	cue_nonsocial	n/a	32	n/a	n/a
308.311200	2	cue_nonsocial_high	n/a	32	n/a	n/a
310.316400	1.149671	dec_nonsocial_high	1.149671	32	n/a	16
310.316400	1.149671	dec_nonsocial_high_accept	1.149671	32	accept	16
317.677520	2	cue_social	n/a	32	n/a	n/a
317.677520	2	cue_social_high	n/a	32	n/a	n/a
319.582500	1.000339	dec_social_high	1.000339	32	n/a	2
319.582500	1.000339	dec_social_high_accept	1.000339	32	accept	2
324.411830	2	cue_nonsocial	n/a	32	n/a	n/a
324.411830	2	cue_nonsocial_high	n/a	32	n/a	n/a
326.415740	1.033663	dec_nonsocial_high	1.033663	32	n/a	16
326.415740	1.033663	dec_nonsocial_high_accept	1.033663	32	accept	16
335.333500	2	cue_social	n/a	32	n/a	n/a
335.333500	2	cue_social_high	n/a	32	n/a	n/a
337.283700	0.832222	dec_social_high	0.832222	32	n/a	2
337.283700	0.832222	dec_social_high_accept	0.832222	32	accept	2
342.927730	2	cue_nonsocial	n/a	32	n/a	n/a
342.927730	2	cue_nonsocial_high	n/a	32	n/a	n/a
344.932530	0.516826	dec_nonsocial_high	0.516826	32	n/a	2
344.932530	0.516826	dec_nonsocial_high_accept	0.516826	32	accept	2
350.577030	2	cue_nonsocial	n/a	32	n/a	n/a
350.577030	2	cue_nonsocial_high	n/a	32	n/a	n/a
352.583070	0.482965	dec_nonsocial_high	0.482965	32	n/a	2
352.583070	0.482965	dec_nonsocial_high_accept	0.482965	32	accept	2
357.516630	2	cue_social	n/a	16	n/a	n/a
357.516630	2	cue_social_low	n/a	16	n/a	n/a
359.416720	0.765483	dec_social_low	0.765483	16	n/a	4
359.416720	0.765483	dec_social_low_accept	0.765483	16	accept	4
364.244170	2	cue_nonsocial	n/a	16	n/a	n/a
364.244170	2	cue_nonsocial_low	n/a	16	n/a	n/a
366.249270	1.966249	dec_nonsocial_low	1.966249	16	n/a	2
366.249270	1.966249	dec_nonsocial_low_accept	1.966249	16	accept	2
371.076970	2	cue_nonsocial	n/a	32	n/a	n/a
371.076970	2	cue_nonsocial_high	n/a	32	n/a	n/a
373.081900	3.7669463	missed_trial	n/a	32	n/a	n/a
