onset	duration	trial_type	response_time	Endowment	Decision	Offer
4.519861	2	cue_nonsocial	n/a	16	n/a	n/a
4.519861	2	cue_nonsocial_low	n/a	16	n/a	n/a
6.525850	1.199045	dec_nonsocial_low	1.199045	16	n/a	2
6.525850	1.199045	dec_nonsocial_low_accept	1.199045	16	accept	2
11.475081	2	cue_social	n/a	32	n/a	n/a
11.475081	2	cue_social_high	n/a	32	n/a	n/a
13.357247	1.117936	dec_social_high	1.117936	32	n/a	16
13.357247	1.117936	dec_social_high_accept	1.117936	32	accept	16
18.186190	2	cue_nonsocial	n/a	32	n/a	n/a
18.186190	2	cue_nonsocial_high	n/a	32	n/a	n/a
20.192600	1.115734	dec_nonsocial_high	1.115734	32	n/a	16
20.192600	1.115734	dec_nonsocial_high_accept	1.115734	32	accept	16
25.020283	2	cue_nonsocial	n/a	32	n/a	n/a
25.020283	2	cue_nonsocial_high	n/a	32	n/a	n/a
27.026373	1.065461	dec_nonsocial_high	1.065461	32	n/a	8
27.026373	1.065461	dec_nonsocial_high_accept	1.065461	32	accept	8
32.664420	2	cue_social	n/a	32	n/a	n/a
32.664420	2	cue_social_high	n/a	32	n/a	n/a
34.675915	0.999746	dec_social_high	0.999746	32	n/a	16
34.675915	0.999746	dec_social_high_accept	0.999746	32	accept	16
43.616142	2	cue_social	n/a	32	n/a	n/a
43.616142	2	cue_social_high	n/a	32	n/a	n/a
45.541500	1.450612	dec_social_high	1.450612	32	n/a	8
45.541500	1.450612	dec_social_high_accept	1.450612	32	accept	8
51.171450	2	cue_nonsocial	n/a	32	n/a	n/a
51.171450	2	cue_nonsocial_high	n/a	32	n/a	n/a
53.175720	1.515947	dec_nonsocial_high	1.515947	32	n/a	16
53.175720	1.515947	dec_nonsocial_high_accept	1.515947	32	accept	16
58.131668	2	cue_social	n/a	32	n/a	n/a
58.131668	2	cue_social_high	n/a	32	n/a	n/a
60.007725	0.967975	dec_social_high	0.967975	32	n/a	2
60.007725	0.967975	dec_social_high_accept	0.967975	32	accept	2
64.836500	2	cue_nonsocial	n/a	32	n/a	n/a
64.836500	2	cue_nonsocial_high	n/a	32	n/a	n/a
66.842926	1.049647	dec_nonsocial_high	1.049647	32	n/a	2
66.842926	1.049647	dec_nonsocial_high_accept	1.049647	32	accept	2
72.490250	2	cue_social	n/a	32	n/a	n/a
72.490250	2	cue_social_high	n/a	32	n/a	n/a
74.492386	0.400039	dec_social_high	0.400039	32	n/a	8
74.492386	0.400039	dec_social_high_reject	0.400039	32	reject	8
79.320595	2	cue_social	n/a	32	n/a	n/a
79.320595	2	cue_social_high	n/a	32	n/a	n/a
81.325650	1.116523	dec_social_high	1.116523	32	n/a	2
81.325650	1.116523	dec_social_high_accept	1.116523	32	accept	2
86.154140	2	cue_nonsocial	n/a	16	n/a	n/a
86.154140	2	cue_nonsocial_low	n/a	16	n/a	n/a
88.159260	1.166385	dec_nonsocial_low	1.166385	16	n/a	4
88.159260	1.166385	dec_nonsocial_low_accept	1.166385	16	accept	4
95.404366	2	cue_nonsocial	n/a	32	n/a	n/a
95.404366	2	cue_nonsocial_high	n/a	32	n/a	n/a
97.408900	1.566549	dec_nonsocial_high	1.566549	32	n/a	2
97.408900	1.566549	dec_nonsocial_high_reject	1.566549	32	reject	2
102.356346	2	cue_social	n/a	16	n/a	n/a
102.356346	2	cue_social_low	n/a	16	n/a	n/a
104.243980	1.232162	dec_social_low	1.232162	16	n/a	2
104.243980	1.232162	dec_social_low_accept	1.232162	16	accept	2
109.179760	2	cue_social	n/a	16	n/a	n/a
109.179760	2	cue_social_low	n/a	16	n/a	n/a
111.077126	1.648549	dec_social_low	1.648549	16	n/a	8
111.077126	1.648549	dec_social_low_accept	1.648549	16	accept	8
115.904976	2	cue_nonsocial	n/a	32	n/a	n/a
115.904976	2	cue_nonsocial_high	n/a	32	n/a	n/a
117.909805	2.233200	dec_nonsocial_high	2.233200	32	n/a	2
117.909805	2.233200	dec_nonsocial_high_reject	2.233200	32	reject	2
123.660515	2	cue_social	n/a	16	n/a	n/a
123.660515	2	cue_social_low	n/a	16	n/a	n/a
125.559660	1.467810	dec_social_low	1.467810	16	n/a	4
125.559660	1.467810	dec_social_low_accept	1.467810	16	accept	4
131.204150	2	cue_nonsocial	n/a	16	n/a	n/a
131.204150	2	cue_nonsocial_low	n/a	16	n/a	n/a
133.209670	0.983723	dec_nonsocial_low	0.983723	16	n/a	8
133.209670	0.983723	dec_nonsocial_low_accept	0.983723	16	accept	8
138.050220	2	cue_social	n/a	32	n/a	n/a
138.050220	2	cue_social_high	n/a	32	n/a	n/a
140.043580	0.966247	dec_social_high	0.966247	32	n/a	8
140.043580	0.966247	dec_social_high_accept	0.966247	32	accept	8
145.688340	2	cue_nonsocial	n/a	32	n/a	n/a
145.688340	2	cue_nonsocial_high	n/a	32	n/a	n/a
147.694050	0.765420	dec_nonsocial_high	0.765420	32	n/a	8
147.694050	0.765420	dec_nonsocial_high_accept	0.765420	32	accept	8
153.337750	2	cue_nonsocial	n/a	32	n/a	n/a
153.337750	2	cue_nonsocial_high	n/a	32	n/a	n/a
155.344380	2.148913	dec_nonsocial_high	2.148913	32	n/a	2
155.344380	2.148913	dec_nonsocial_high_reject	2.148913	32	reject	2
162.604320	2	cue_nonsocial	n/a	16	n/a	n/a
162.604320	2	cue_nonsocial_low	n/a	16	n/a	n/a
164.611020	1.232701	dec_nonsocial_low	1.232701	16	n/a	2
164.611020	1.232701	dec_nonsocial_low_reject	1.232701	16	reject	2
169.540340	2	cue_social	n/a	16	n/a	n/a
169.540340	2	cue_social_low	n/a	16	n/a	n/a
171.443500	1.366941	dec_social_low	1.366941	16	n/a	1
171.443500	1.366941	dec_social_low_accept	1.366941	16	accept	1
176.272630	2	cue_nonsocial	n/a	16	n/a	n/a
176.272630	2	cue_nonsocial_low	n/a	16	n/a	n/a
178.276640	1.416563	dec_nonsocial_low	1.416563	16	n/a	2
178.276640	1.416563	dec_nonsocial_low_reject	1.416563	16	reject	2
183.921690	2	cue_nonsocial	n/a	16	n/a	n/a
183.921690	2	cue_nonsocial_low	n/a	16	n/a	n/a
185.926600	2.100570	dec_nonsocial_low	2.100570	16	n/a	2
185.926600	2.100570	dec_nonsocial_low_accept	2.100570	16	accept	2
191.571550	2	cue_nonsocial	n/a	16	n/a	n/a
191.571550	2	cue_nonsocial_low	n/a	16	n/a	n/a
193.576690	1.950378	dec_nonsocial_low	1.950378	16	n/a	1
193.576690	1.950378	dec_nonsocial_low_reject	1.950378	16	reject	1
202.449510	2	cue_social	n/a	32	n/a	n/a
202.449510	2	cue_social_high	n/a	32	n/a	n/a
204.444050	1.116170	dec_social_high	1.116170	32	n/a	2
204.444050	1.116170	dec_social_high_reject	1.116170	32	reject	2
210.087270	2	cue_social	n/a	32	n/a	n/a
210.087270	2	cue_social_high	n/a	32	n/a	n/a
212.093810	0.866316	dec_social_high	0.866316	32	n/a	8
212.093810	0.866316	dec_social_high_accept	0.866316	32	accept	8
216.921370	2	cue_social	n/a	32	n/a	n/a
216.921370	2	cue_social_high	n/a	32	n/a	n/a
218.927320	1.116247	dec_social_high	1.116247	32	n/a	2
218.927320	1.116247	dec_social_high_reject	1.116247	32	reject	2
223.756500	2	cue_nonsocial	n/a	16	n/a	n/a
223.756500	2	cue_nonsocial_low	n/a	16	n/a	n/a
225.759690	0.851099	dec_nonsocial_low	0.851099	16	n/a	4
225.759690	0.851099	dec_nonsocial_low_accept	0.851099	16	accept	4
230.649000	2	cue_social	n/a	32	n/a	n/a
230.649000	2	cue_social_high	n/a	32	n/a	n/a
232.595170	1.032203	dec_social_high	1.032203	32	n/a	16
232.595170	1.032203	dec_social_high_accept	1.032203	32	accept	16
241.470830	2	cue_social	n/a	32	n/a	n/a
241.470830	2	cue_social_high	n/a	32	n/a	n/a
243.460920	1.433309	dec_social_high	1.433309	32	n/a	3
243.460920	1.433309	dec_social_high_reject	1.433309	32	reject	3
250.832530	2	cue_social	n/a	16	n/a	n/a
250.832530	2	cue_social_low	n/a	16	n/a	n/a
252.710590	0.933731	dec_social_low	0.933731	16	n/a	8
252.710590	0.933731	dec_social_low_accept	0.933731	16	accept	8
257.539200	2	cue_social	n/a	32	n/a	n/a
257.539200	2	cue_social_high	n/a	32	n/a	n/a
259.544000	1.300610	dec_social_high	1.300610	32	n/a	16
259.544000	1.300610	dec_social_high_accept	1.300610	32	accept	16
264.372620	2	cue_nonsocial	n/a	16	n/a	n/a
264.372620	2	cue_nonsocial_low	n/a	16	n/a	n/a
266.378600	1.083344	dec_nonsocial_low	1.083344	16	n/a	8
266.378600	1.083344	dec_nonsocial_low_accept	1.083344	16	accept	8
272.021970	2	cue_nonsocial	n/a	32	n/a	n/a
272.021970	2	cue_nonsocial_high	n/a	32	n/a	n/a
274.028320	1.716025	dec_nonsocial_high	1.716025	32	n/a	3
274.028320	1.716025	dec_nonsocial_high_reject	1.716025	32	reject	3
281.373720	2	cue_social	n/a	32	n/a	n/a
281.373720	2	cue_social_high	n/a	32	n/a	n/a
283.294400	1.483303	dec_social_high	1.483303	32	n/a	3
283.294400	1.483303	dec_social_high_accept	1.483303	32	accept	3
288.239750	2	cue_social	n/a	16	n/a	n/a
288.239750	2	cue_social_low	n/a	16	n/a	n/a
290.128050	1.499940	dec_social_low	1.499940	16	n/a	2
290.128050	1.499940	dec_social_low_reject	1.499940	16	reject	2
300.606720	2	cue_nonsocial	n/a	32	n/a	n/a
300.606720	2	cue_nonsocial_high	n/a	32	n/a	n/a
302.610720	1.817328	dec_nonsocial_high	1.817328	32	n/a	16
302.610720	1.817328	dec_nonsocial_high_accept	1.817328	32	accept	16
307.546940	2	cue_social	n/a	16	n/a	n/a
307.546940	2	cue_social_low	n/a	16	n/a	n/a
309.445620	1.215363	dec_social_low	1.215363	16	n/a	1
309.445620	1.215363	dec_social_low_reject	1.215363	16	reject	1
314.276670	2	cue_social	n/a	16	n/a	n/a
314.276670	2	cue_social_low	n/a	16	n/a	n/a
316.279300	1.748458	dec_social_low	1.748458	16	n/a	2
316.279300	1.748458	dec_social_low_accept	1.748458	16	accept	2
323.539550	2	cue_nonsocial	n/a	32	n/a	n/a
323.539550	2	cue_nonsocial_high	n/a	32	n/a	n/a
325.545750	1.599601	dec_nonsocial_high	1.599601	32	n/a	2
325.545750	1.599601	dec_nonsocial_high_reject	1.599601	32	reject	2
331.283600	2	cue_social	n/a	32	n/a	n/a
331.283600	2	cue_social_high	n/a	32	n/a	n/a
333.194600	1.016810	dec_social_high	1.016810	32	n/a	3
333.194600	1.016810	dec_social_high_accept	1.016810	32	accept	3
338.023560	2	cue_nonsocial	n/a	32	n/a	n/a
338.023560	2	cue_nonsocial_high	n/a	32	n/a	n/a
340.028050	1.133686	dec_nonsocial_high	1.133686	32	n/a	8
340.028050	1.133686	dec_nonsocial_high_accept	1.133686	32	accept	8
347.289580	2	cue_nonsocial	n/a	16	n/a	n/a
347.289580	2	cue_nonsocial_low	n/a	16	n/a	n/a
349.296230	1.482569	dec_nonsocial_low	1.482569	16	n/a	2
349.296230	1.482569	dec_nonsocial_low_accept	1.482569	16	accept	2
354.230260	2	cue_social	n/a	16	n/a	n/a
354.230260	2	cue_social_low	n/a	16	n/a	n/a
356.129400	0.933053	dec_social_low	0.933053	16	n/a	4
356.129400	0.933053	dec_social_low_accept	0.933053	16	accept	4
360.956500	2	cue_nonsocial	n/a	16	n/a	n/a
360.956500	2	cue_nonsocial_low	n/a	16	n/a	n/a
362.962070	2.066368	dec_nonsocial_low	2.066368	16	n/a	8
362.962070	2.066368	dec_nonsocial_low_accept	2.066368	16	accept	8
370.207600	2	cue_nonsocial	n/a	32	n/a	n/a
370.207600	2	cue_nonsocial_high	n/a	32	n/a	n/a
372.212620	1.016186	dec_nonsocial_high	1.016186	32	n/a	8
372.212620	1.016186	dec_nonsocial_high_accept	1.016186	32	accept	8
