onset	duration	trial_type	response_time	Endowment	Decision	Offer
4.505362	2	cue_nonsocial	n/a	16	n/a	n/a
4.505362	2	cue_nonsocial_low	n/a	16	n/a	n/a
6.511193	1.433255	dec_nonsocial_low	1.433255	16	n/a	4
6.511193	1.433255	dec_nonsocial_low_accept	1.433255	16	accept	4
15.473888	2	cue_social	n/a	32	n/a	n/a
15.473888	2	cue_social_high	n/a	32	n/a	n/a
17.378044	2.299521	dec_social_high	2.299521	32	n/a	16
17.378044	2.299521	dec_social_high_reject	2.299521	32	reject	16
23.022040	2	cue_nonsocial	n/a	32	n/a	n/a
23.022040	2	cue_nonsocial_high	n/a	32	n/a	n/a
25.028110	1.349657	dec_nonsocial_high	1.349657	32	n/a	2
25.028110	1.349657	dec_nonsocial_high_accept	1.349657	32	accept	2
30.672941	2	cue_nonsocial	n/a	32	n/a	n/a
30.672941	2	cue_nonsocial_high	n/a	32	n/a	n/a
32.677464	2.016303	dec_nonsocial_high	2.016303	32	n/a	16
32.677464	2.016303	dec_nonsocial_high_accept	2.016303	32	accept	16
37.608963	2	cue_social	n/a	32	n/a	n/a
37.608963	2	cue_social_high	n/a	32	n/a	n/a
39.511066	1.199868	dec_social_high	1.199868	32	n/a	3
39.511066	1.199868	dec_social_high_accept	1.199868	32	accept	3
44.338550	2	cue_nonsocial	n/a	16	n/a	n/a
44.338550	2	cue_nonsocial_low	n/a	16	n/a	n/a
46.344750	1.482915	dec_nonsocial_low	1.482915	16	n/a	8
46.344750	1.482915	dec_nonsocial_low_accept	1.482915	16	accept	8
51.171890	2	cue_nonsocial	n/a	16	n/a	n/a
51.171890	2	cue_nonsocial_low	n/a	16	n/a	n/a
53.177030	0.816574	dec_nonsocial_low	0.816574	16	n/a	2
53.177030	0.816574	dec_nonsocial_low_accept	0.816574	16	accept	2
58.005120	2	cue_nonsocial	n/a	16	n/a	n/a
58.005120	2	cue_nonsocial_low	n/a	16	n/a	n/a
60.011110	1.699905	dec_nonsocial_low	1.699905	16	n/a	1
60.011110	1.699905	dec_nonsocial_low_reject	1.699905	16	reject	1
68.872475	2	cue_nonsocial	n/a	32	n/a	n/a
68.872475	2	cue_nonsocial_high	n/a	32	n/a	n/a
70.877920	1.799700	dec_nonsocial_high	1.799700	32	n/a	3
70.877920	1.799700	dec_nonsocial_high_reject	1.799700	32	reject	3
75.810234	2	cue_social	n/a	16	n/a	n/a
75.810234	2	cue_social_low	n/a	16	n/a	n/a
77.711440	1.015408	dec_social_low	1.015408	16	n/a	8
77.711440	1.015408	dec_social_low_accept	1.015408	16	accept	8
83.448060	2	cue_social	n/a	32	n/a	n/a
83.448060	2	cue_social_high	n/a	32	n/a	n/a
85.361780	1.399180	dec_social_high	1.399180	32	n/a	2
85.361780	1.399180	dec_social_high_accept	1.399180	32	accept	2
91.006780	2	cue_nonsocial	n/a	32	n/a	n/a
91.006780	2	cue_nonsocial_high	n/a	32	n/a	n/a
93.010994	1.566202	dec_nonsocial_high	1.566202	32	n/a	3
93.010994	1.566202	dec_nonsocial_high_reject	1.566202	32	reject	3
98.655080	2	cue_nonsocial	n/a	16	n/a	n/a
98.655080	2	cue_nonsocial_low	n/a	16	n/a	n/a
100.660866	1.515733	dec_nonsocial_low	1.515733	16	n/a	2
100.660866	1.515733	dec_nonsocial_low_accept	1.515733	16	accept	2
105.583370	2	cue_social	n/a	16	n/a	n/a
105.583370	2	cue_social_low	n/a	16	n/a	n/a
107.493965	1.566649	dec_social_low	1.566649	16	n/a	2
107.493965	1.566649	dec_social_low_accept	1.566649	16	accept	2
113.228325	2	cue_social	n/a	32	n/a	n/a
113.228325	2	cue_social_high	n/a	32	n/a	n/a
115.144060	1.715956	dec_social_high	1.715956	32	n/a	3
115.144060	1.715956	dec_social_high_accept	1.715956	32	accept	3
120.061360	2	cue_social	n/a	16	n/a	n/a
120.061360	2	cue_social_low	n/a	16	n/a	n/a
121.977560	1.799658	dec_social_low	1.799658	16	n/a	8
121.977560	1.799658	dec_social_low_accept	1.799658	16	accept	8
126.805786	2	cue_nonsocial	n/a	16	n/a	n/a
126.805786	2	cue_nonsocial_low	n/a	16	n/a	n/a
128.809920	2.033928	dec_nonsocial_low	2.033928	16	n/a	1
128.809920	2.033928	dec_nonsocial_low_reject	2.033928	16	reject	1
134.541990	2	cue_social	n/a	16	n/a	n/a
134.541990	2	cue_social_low	n/a	16	n/a	n/a
136.459930	1.600825	dec_social_low	1.600825	16	n/a	1
136.459930	1.600825	dec_social_low_accept	1.600825	16	accept	1
141.288300	2	cue_nonsocial	n/a	32	n/a	n/a
141.288300	2	cue_nonsocial_high	n/a	32	n/a	n/a
143.293810	1.382774	dec_nonsocial_high	1.382774	32	n/a	8
143.293810	1.382774	dec_nonsocial_high_accept	1.382774	32	accept	8
150.634400	2	cue_social	n/a	32	n/a	n/a
150.634400	2	cue_social_high	n/a	32	n/a	n/a
152.560840	1.132689	dec_social_high	1.132689	32	n/a	8
152.560840	1.132689	dec_social_high_accept	1.132689	32	accept	8
157.388660	2	cue_nonsocial	n/a	16	n/a	n/a
157.388660	2	cue_nonsocial_low	n/a	16	n/a	n/a
159.393980	1.250056	dec_nonsocial_low	1.250056	16	n/a	4
159.393980	1.250056	dec_nonsocial_low_accept	1.250056	16	accept	4
164.298130	2	cue_social	n/a	32	n/a	n/a
164.298130	2	cue_social_high	n/a	32	n/a	n/a
166.226060	1.634038	dec_social_high	1.634038	32	n/a	2
166.226060	1.634038	dec_social_high_accept	1.634038	32	accept	2
173.575590	2	cue_social	n/a	16	n/a	n/a
173.575590	2	cue_social_low	n/a	16	n/a	n/a
175.477260	0.433579	dec_social_low	0.433579	16	n/a	8
175.477260	0.433579	dec_social_low_accept	0.433579	16	accept	8
181.121550	2	cue_nonsocial	n/a	32	n/a	n/a
181.121550	2	cue_nonsocial_high	n/a	32	n/a	n/a
183.126880	0.550294	dec_nonsocial_high	0.550294	32	n/a	8
183.126880	0.550294	dec_nonsocial_high_reject	0.550294	32	reject	8
188.037830	2	cue_social	n/a	32	n/a	n/a
188.037830	2	cue_social_high	n/a	32	n/a	n/a
189.960100	2.050431	dec_social_high	2.050431	32	n/a	2
189.960100	2.050431	dec_social_high_reject	2.050431	32	reject	2
194.788510	2	cue_nonsocial	n/a	16	n/a	n/a
194.788510	2	cue_nonsocial_low	n/a	16	n/a	n/a
196.793660	3.7669463	missed_trial	n/a	16	n/a	n/a
201.719560	2	cue_social	n/a	32	n/a	n/a
201.719560	2	cue_social_high	n/a	32	n/a	n/a
203.643680	0.433347	dec_social_high	0.433347	32	n/a	3
203.643680	0.433347	dec_social_high_accept	0.433347	32	accept	3
208.471400	2	cue_nonsocial	n/a	32	n/a	n/a
208.471400	2	cue_nonsocial_high	n/a	32	n/a	n/a
210.477860	0.982727	dec_nonsocial_high	0.982727	32	n/a	16
210.477860	0.982727	dec_nonsocial_high_accept	0.982727	32	accept	16
220.959760	2	cue_social	n/a	16	n/a	n/a
220.959760	2	cue_social_low	n/a	16	n/a	n/a
222.960850	1.082121	dec_social_low	1.082121	16	n/a	2
222.960850	1.082121	dec_social_low_accept	1.082121	16	accept	2
231.912400	2	cue_social	n/a	16	n/a	n/a
231.912400	2	cue_social_low	n/a	16	n/a	n/a
233.843770	1.416554	dec_social_low	1.416554	16	n/a	8
233.843770	1.416554	dec_social_low_accept	1.416554	16	accept	8
241.177410	2	cue_social	n/a	16	n/a	n/a
241.177410	2	cue_social_low	n/a	16	n/a	n/a
243.092710	3.084046	dec_social_low	3.084046	16	n/a	4
243.092710	3.084046	dec_social_low_accept	3.084046	16	accept	4
250.337800	2	cue_nonsocial	n/a	16	n/a	n/a
250.337800	2	cue_nonsocial_low	n/a	16	n/a	n/a
252.344240	1.132728	dec_nonsocial_low	1.132728	16	n/a	1
252.344240	1.132728	dec_nonsocial_low_reject	1.132728	16	reject	1
258.104460	2	cue_social	n/a	16	n/a	n/a
258.104460	2	cue_social_low	n/a	16	n/a	n/a
259.993770	1.449777	dec_social_low	1.449777	16	n/a	2
259.993770	1.449777	dec_social_low_accept	1.449777	16	accept	2
267.346800	2	cue_social	n/a	32	n/a	n/a
267.346800	2	cue_social_high	n/a	32	n/a	n/a
269.259460	1.966843	dec_social_high	1.966843	32	n/a	16
269.259460	1.966843	dec_social_high_accept	1.966843	32	accept	16
274.088100	2	cue_nonsocial	n/a	16	n/a	n/a
274.088100	2	cue_nonsocial_low	n/a	16	n/a	n/a
276.092800	2.134054	dec_nonsocial_low	2.134054	16	n/a	1
276.092800	2.134054	dec_nonsocial_low_accept	2.134054	16	accept	1
281.721200	2	cue_nonsocial	n/a	32	n/a	n/a
281.721200	2	cue_nonsocial_high	n/a	32	n/a	n/a
283.727200	0.766609	dec_nonsocial_high	0.766609	32	n/a	3
283.727200	0.766609	dec_nonsocial_high_reject	0.766609	32	reject	3
288.554530	2	cue_nonsocial	n/a	32	n/a	n/a
288.554530	2	cue_nonsocial_high	n/a	32	n/a	n/a
290.561100	1.199009	dec_nonsocial_high	1.199009	32	n/a	8
290.561100	1.199009	dec_nonsocial_high_accept	1.199009	32	accept	8
295.470280	2	cue_social	n/a	16	n/a	n/a
295.470280	2	cue_social_low	n/a	16	n/a	n/a
297.393950	1.166101	dec_social_low	1.166101	16	n/a	4
297.393950	1.166101	dec_social_low_accept	1.166101	16	accept	4
302.307200	2	cue_social	n/a	16	n/a	n/a
302.307200	2	cue_social_low	n/a	16	n/a	n/a
304.226930	1.682769	dec_social_low	1.682769	16	n/a	1
304.226930	1.682769	dec_social_low_accept	1.682769	16	accept	1
309.054400	2	cue_nonsocial	n/a	32	n/a	n/a
309.054400	2	cue_nonsocial_high	n/a	32	n/a	n/a
311.059700	2.650389	dec_nonsocial_high	2.650389	32	n/a	16
311.059700	2.650389	dec_nonsocial_high_accept	2.650389	32	accept	16
318.395600	2	cue_social	n/a	32	n/a	n/a
318.395600	2	cue_social_high	n/a	32	n/a	n/a
320.310580	0.949253	dec_social_high	0.949253	32	n/a	8
320.310580	0.949253	dec_social_high_accept	0.949253	32	accept	8
325.209560	2	cue_social	n/a	32	n/a	n/a
325.209560	2	cue_social_high	n/a	32	n/a	n/a
327.142500	0.717793	dec_social_high	0.717793	32	n/a	8
327.142500	0.717793	dec_social_high_reject	0.717793	32	reject	8
331.972230	2	cue_nonsocial	n/a	32	n/a	n/a
331.972230	2	cue_nonsocial_high	n/a	32	n/a	n/a
333.976800	0.999832	dec_nonsocial_high	0.999832	32	n/a	16
333.976800	0.999832	dec_nonsocial_high_accept	0.999832	32	accept	16
339.698000	2	cue_social	n/a	16	n/a	n/a
339.698000	2	cue_social_low	n/a	16	n/a	n/a
341.627230	1.482589	dec_social_low	1.482589	16	n/a	1
341.627230	1.482589	dec_social_low_reject	1.482589	16	reject	1
347.272430	2	cue_nonsocial	n/a	16	n/a	n/a
347.272430	2	cue_nonsocial_low	n/a	16	n/a	n/a
349.277160	1.099408	dec_nonsocial_low	1.099408	16	n/a	4
349.277160	1.099408	dec_nonsocial_low_accept	1.099408	16	accept	4
356.590760	2	cue_social	n/a	32	n/a	n/a
356.590760	2	cue_social_high	n/a	32	n/a	n/a
358.526700	1.716290	dec_social_high	1.716290	32	n/a	8
358.526700	1.716290	dec_social_high_accept	1.716290	32	accept	8
363.354370	2	cue_nonsocial	n/a	32	n/a	n/a
363.354370	2	cue_nonsocial_high	n/a	32	n/a	n/a
365.359620	3.7669463	missed_trial	n/a	32	n/a	n/a
370.204130	2	cue_nonsocial	n/a	16	n/a	n/a
370.204130	2	cue_nonsocial_low	n/a	16	n/a	n/a
372.209700	0.333530	dec_nonsocial_low	0.333530	16	n/a	1
372.209700	0.333530	dec_nonsocial_low_reject	0.333530	16	reject	1
