onset	duration	trial_type	response_time	Endowment	Decision	Offer
4.511782	2	cue_nonsocial	n/a	32	n/a	n/a
4.511782	2	cue_nonsocial_high	n/a	32	n/a	n/a
6.517532	2.116016	dec_nonsocial_high	2.116016	32	n/a	8
6.517532	2.116016	dec_nonsocial_high_accept	2.116016	32	accept	8
12.162523	2	cue_nonsocial	n/a	32	n/a	n/a
12.162523	2	cue_nonsocial_high	n/a	32	n/a	n/a
14.167255	1.483297	dec_nonsocial_high	1.483297	32	n/a	2
14.167255	1.483297	dec_nonsocial_high_accept	1.483297	32	accept	2
21.445946	2	cue_social	n/a	32	n/a	n/a
21.445946	2	cue_social_high	n/a	32	n/a	n/a
23.416683	1.133711	dec_social_high	1.133711	32	n/a	3
23.416683	1.133711	dec_social_high_accept	1.133711	32	accept	3
28.279444	2	cue_social	n/a	16	n/a	n/a
28.279444	2	cue_social_low	n/a	16	n/a	n/a
30.250265	1.266592	dec_social_low	1.266592	16	n/a	1
30.250265	1.266592	dec_social_low_accept	1.266592	16	accept	1
35.078460	2	cue_nonsocial	n/a	32	n/a	n/a
35.078460	2	cue_nonsocial_high	n/a	32	n/a	n/a
37.084846	0.999286	dec_nonsocial_high	0.999286	32	n/a	2
37.084846	0.999286	dec_nonsocial_high_accept	0.999286	32	accept	2
41.912617	2	cue_nonsocial	n/a	32	n/a	n/a
41.912617	2	cue_nonsocial_high	n/a	32	n/a	n/a
43.916813	1.266631	dec_nonsocial_high	1.266631	32	n/a	3
43.916813	1.266631	dec_nonsocial_high_accept	1.266631	32	accept	3
51.288727	2	cue_social	n/a	16	n/a	n/a
51.288727	2	cue_social_low	n/a	16	n/a	n/a
53.167750	1.032699	dec_social_low	1.032699	16	n/a	8
53.167750	1.032699	dec_social_low_accept	1.032699	16	accept	8
60.430880	2	cue_nonsocial	n/a	32	n/a	n/a
60.430880	2	cue_nonsocial_high	n/a	32	n/a	n/a
62.435066	1.382732	dec_nonsocial_high	1.382732	32	n/a	8
62.435066	1.382732	dec_nonsocial_high_accept	1.382732	32	accept	8
68.079130	2	cue_nonsocial	n/a	16	n/a	n/a
68.079130	2	cue_nonsocial_low	n/a	16	n/a	n/a
70.084450	1.183459	dec_nonsocial_low	1.183459	16	n/a	4
70.084450	1.183459	dec_nonsocial_low_accept	1.183459	16	accept	4
75.723915	2	cue_social	n/a	32	n/a	n/a
75.723915	2	cue_social_high	n/a	32	n/a	n/a
77.734160	0.983819	dec_social_high	0.983819	32	n/a	16
77.734160	0.983819	dec_social_high_accept	0.983819	32	accept	16
82.570220	2	cue_social	n/a	32	n/a	n/a
82.570220	2	cue_social_high	n/a	32	n/a	n/a
84.568214	1.065908	dec_social_high	1.065908	32	n/a	3
84.568214	1.065908	dec_social_high_accept	1.065908	32	accept	3
89.396390	2	cue_nonsocial	n/a	32	n/a	n/a
89.396390	2	cue_nonsocial_high	n/a	32	n/a	n/a
91.401900	1.015975	dec_nonsocial_high	1.015975	32	n/a	16
91.401900	1.015975	dec_nonsocial_high_accept	1.015975	32	accept	16
97.045890	2	cue_nonsocial	n/a	32	n/a	n/a
97.045890	2	cue_nonsocial_high	n/a	32	n/a	n/a
99.051670	0.833906	dec_nonsocial_high	0.833906	32	n/a	8
99.051670	0.833906	dec_nonsocial_high_accept	0.833906	32	accept	8
106.304665	2	cue_social	n/a	16	n/a	n/a
106.304665	2	cue_social_low	n/a	16	n/a	n/a
108.317470	1.000799	dec_social_low	1.000799	16	n/a	4
108.317470	1.000799	dec_social_low_accept	1.000799	16	accept	4
113.963230	2	cue_nonsocial	n/a	32	n/a	n/a
113.963230	2	cue_nonsocial_high	n/a	32	n/a	n/a
115.969310	0.732416	dec_nonsocial_high	0.732416	32	n/a	3
115.969310	0.732416	dec_nonsocial_high_accept	0.732416	32	accept	3
121.718520	2	cue_social	n/a	32	n/a	n/a
121.718520	2	cue_social_high	n/a	32	n/a	n/a
123.618950	1.065999	dec_social_high	1.065999	32	n/a	16
123.618950	1.065999	dec_social_high_accept	1.065999	32	accept	16
128.446850	2	cue_nonsocial	n/a	16	n/a	n/a
128.446850	2	cue_nonsocial_low	n/a	16	n/a	n/a
130.451780	0.816427	dec_nonsocial_low	0.816427	16	n/a	2
130.451780	0.816427	dec_nonsocial_low_accept	0.816427	16	accept	2
137.778490	2	cue_social	n/a	16	n/a	n/a
137.778490	2	cue_social_low	n/a	16	n/a	n/a
139.718640	0.783119	dec_social_low	0.783119	16	n/a	8
139.718640	0.783119	dec_social_low_accept	0.783119	16	accept	8
145.362640	2	cue_nonsocial	n/a	32	n/a	n/a
145.362640	2	cue_nonsocial_high	n/a	32	n/a	n/a
147.368960	0.833149	dec_nonsocial_high	0.833149	32	n/a	2
147.368960	0.833149	dec_nonsocial_high_accept	0.833149	32	accept	2
152.197800	2	cue_nonsocial	n/a	16	n/a	n/a
152.197800	2	cue_nonsocial_low	n/a	16	n/a	n/a
154.203170	1.015823	dec_nonsocial_low	1.015823	16	n/a	8
154.203170	1.015823	dec_nonsocial_low_accept	1.015823	16	accept	8
163.080050	2	cue_social	n/a	32	n/a	n/a
163.080050	2	cue_social_high	n/a	32	n/a	n/a
165.069470	0.749418	dec_social_high	0.749418	32	n/a	8
165.069470	0.749418	dec_social_high_accept	0.749418	32	accept	8
170.724490	2	cue_social	n/a	32	n/a	n/a
170.724490	2	cue_social_high	n/a	32	n/a	n/a
172.719270	1.183043	dec_social_high	1.183043	32	n/a	2
172.719270	1.183043	dec_social_high_accept	1.183043	32	accept	2
177.681560	2	cue_social	n/a	32	n/a	n/a
177.681560	2	cue_social_high	n/a	32	n/a	n/a
179.552100	1.051094	dec_social_high	1.051094	32	n/a	3
179.552100	1.051094	dec_social_high_accept	1.051094	32	accept	3
186.818790	2	cue_social	n/a	32	n/a	n/a
186.818790	2	cue_social_high	n/a	32	n/a	n/a
188.801910	1.117030	dec_social_high	1.117030	32	n/a	3
188.801910	1.117030	dec_social_high_accept	1.117030	32	accept	3
193.633330	2	cue_nonsocial	n/a	32	n/a	n/a
193.633330	2	cue_nonsocial_high	n/a	32	n/a	n/a
195.635990	0.865903	dec_nonsocial_high	0.865903	32	n/a	2
195.635990	0.865903	dec_nonsocial_high_accept	0.865903	32	accept	2
201.280500	2	cue_nonsocial	n/a	32	n/a	n/a
201.280500	2	cue_nonsocial_high	n/a	32	n/a	n/a
203.286900	0.931993	dec_nonsocial_high	0.931993	32	n/a	8
203.286900	0.931993	dec_nonsocial_high_accept	0.931993	32	accept	8
208.114430	2	cue_nonsocial	n/a	16	n/a	n/a
208.114430	2	cue_nonsocial_low	n/a	16	n/a	n/a
210.119170	0.866451	dec_nonsocial_low	0.866451	16	n/a	2
210.119170	0.866451	dec_nonsocial_low_accept	0.866451	16	accept	2
215.063670	2	cue_social	n/a	32	n/a	n/a
215.063670	2	cue_social_high	n/a	32	n/a	n/a
216.953140	0.833100	dec_social_high	0.833100	32	n/a	16
216.953140	0.833100	dec_social_high_accept	0.833100	32	accept	16
221.792700	2	cue_social	n/a	32	n/a	n/a
221.792700	2	cue_social_high	n/a	32	n/a	n/a
223.786640	0.966184	dec_social_high	0.966184	32	n/a	3
223.786640	0.966184	dec_social_high_accept	0.966184	32	accept	3
228.719540	2	cue_social	n/a	32	n/a	n/a
228.719540	2	cue_social_high	n/a	32	n/a	n/a
230.619260	0.750609	dec_social_high	0.750609	32	n/a	8
230.619260	0.750609	dec_social_high_accept	0.750609	32	accept	8
239.605130	2	cue_social	n/a	32	n/a	n/a
239.605130	2	cue_social_high	n/a	32	n/a	n/a
241.487030	0.882308	dec_social_high	0.882308	32	n/a	8
241.487030	0.882308	dec_social_high_accept	0.882308	32	accept	8
247.133580	2	cue_social	n/a	32	n/a	n/a
247.133580	2	cue_social_high	n/a	32	n/a	n/a
249.136490	0.866217	dec_social_high	0.866217	32	n/a	8
249.136490	0.866217	dec_social_high_accept	0.866217	32	accept	8
258.024380	2	cue_social	n/a	32	n/a	n/a
258.024380	2	cue_social_high	n/a	32	n/a	n/a
260.003080	0.883503	dec_social_high	0.883503	32	n/a	2
260.003080	0.883503	dec_social_high_accept	0.883503	32	accept	2
264.832370	2	cue_nonsocial	n/a	16	n/a	n/a
264.832370	2	cue_nonsocial_low	n/a	16	n/a	n/a
266.837040	0.899772	dec_nonsocial_low	0.899772	16	n/a	8
266.837040	0.899772	dec_nonsocial_low_accept	0.899772	16	accept	8
272.482420	2	cue_nonsocial	n/a	32	n/a	n/a
272.482420	2	cue_nonsocial_high	n/a	32	n/a	n/a
274.486000	0.800885	dec_nonsocial_high	0.800885	32	n/a	3
274.486000	0.800885	dec_nonsocial_high_accept	0.800885	32	accept	3
279.314600	2	cue_nonsocial	n/a	32	n/a	n/a
279.314600	2	cue_nonsocial_high	n/a	32	n/a	n/a
281.320430	0.749962	dec_nonsocial_high	0.749962	32	n/a	16
281.320430	0.749962	dec_nonsocial_high_accept	0.749962	32	accept	16
286.148070	2	cue_nonsocial	n/a	32	n/a	n/a
286.148070	2	cue_nonsocial_high	n/a	32	n/a	n/a
288.153600	0.766324	dec_nonsocial_high	0.766324	32	n/a	3
288.153600	0.766324	dec_nonsocial_high_accept	0.766324	32	accept	3
292.981380	2	cue_nonsocial	n/a	32	n/a	n/a
292.981380	2	cue_nonsocial_high	n/a	32	n/a	n/a
294.986800	0.650269	dec_nonsocial_high	0.650269	32	n/a	16
294.986800	0.650269	dec_nonsocial_high_accept	0.650269	32	accept	16
299.826100	2	cue_social	n/a	16	n/a	n/a
299.826100	2	cue_social_low	n/a	16	n/a	n/a
301.821140	1.065770	dec_social_low	1.065770	16	n/a	1
301.821140	1.065770	dec_social_low_accept	1.065770	16	accept	1
307.493260	2	cue_nonsocial	n/a	32	n/a	n/a
307.493260	2	cue_nonsocial_high	n/a	32	n/a	n/a
309.470550	1.032956	dec_nonsocial_high	1.032956	32	n/a	2
309.470550	1.032956	dec_nonsocial_high_accept	1.032956	32	accept	2
316.808300	2	cue_social	n/a	16	n/a	n/a
316.808300	2	cue_social_low	n/a	16	n/a	n/a
318.736480	1.051432	dec_social_low	1.051432	16	n/a	4
318.736480	1.051432	dec_social_low_accept	1.051432	16	accept	4
323.565600	2	cue_nonsocial	n/a	16	n/a	n/a
323.565600	2	cue_nonsocial_low	n/a	16	n/a	n/a
325.571600	1.166184	dec_nonsocial_low	1.166184	16	n/a	1
325.571600	1.166184	dec_nonsocial_low_accept	1.166184	16	accept	1
330.400670	2	cue_nonsocial	n/a	32	n/a	n/a
330.400670	2	cue_nonsocial_high	n/a	32	n/a	n/a
332.404420	0.883208	dec_nonsocial_high	0.883208	32	n/a	8
332.404420	0.883208	dec_nonsocial_high_accept	0.883208	32	accept	8
337.334560	2	cue_social	n/a	16	n/a	n/a
337.334560	2	cue_social_low	n/a	16	n/a	n/a
339.238000	0.782928	dec_social_low	0.782928	16	n/a	1
339.238000	0.782928	dec_social_low_accept	0.782928	16	accept	1
344.166600	2	cue_social	n/a	16	n/a	n/a
344.166600	2	cue_social_low	n/a	16	n/a	n/a
346.071530	0.916045	dec_social_low	0.916045	16	n/a	8
346.071530	0.916045	dec_social_low_accept	0.916045	16	accept	8
351.016240	2	cue_social	n/a	16	n/a	n/a
351.016240	2	cue_social_low	n/a	16	n/a	n/a
352.904900	0.799334	dec_social_low	0.799334	16	n/a	1
352.904900	0.799334	dec_social_low_accept	0.799334	16	accept	1
358.674260	2	cue_social	n/a	16	n/a	n/a
358.674260	2	cue_social_low	n/a	16	n/a	n/a
360.554630	1.233031	dec_social_low	1.233031	16	n/a	2
360.554630	1.233031	dec_social_low_accept	1.233031	16	accept	2
365.383900	2	cue_nonsocial	n/a	16	n/a	n/a
365.383900	2	cue_nonsocial_low	n/a	16	n/a	n/a
367.387880	1.083458	dec_nonsocial_low	1.083458	16	n/a	8
367.387880	1.083458	dec_nonsocial_low_accept	1.083458	16	accept	8
