onset	duration	trial_type	response_time	Endowment	Decision	Offer
4.567822	2	cue_social	n/a	16	n/a	n/a
4.567822	2	cue_social_low	n/a	16	n/a	n/a
6.512783	1.232172	dec_social_low	1.232172	16	n/a	2
6.512783	1.232172	dec_social_low_accept	1.232172	16	accept	2
12.156009	2	cue_nonsocial	n/a	32	n/a	n/a
12.156009	2	cue_nonsocial_high	n/a	32	n/a	n/a
14.161047	0.933996	dec_nonsocial_high	0.933996	32	n/a	8
14.161047	0.933996	dec_nonsocial_high_accept	0.933996	32	accept	8
19.922726	2	cue_social	n/a	16	n/a	n/a
19.922726	2	cue_social_low	n/a	16	n/a	n/a
21.812159	1.549506	dec_social_low	1.549506	16	n/a	2
21.812159	1.549506	dec_social_low_accept	1.549506	16	accept	2
29.056131	2	cue_nonsocial	n/a	32	n/a	n/a
29.056131	2	cue_nonsocial_high	n/a	32	n/a	n/a
31.062542	1.349172	dec_nonsocial_high	1.349172	32	n/a	8
31.062542	1.349172	dec_nonsocial_high_accept	1.349172	32	accept	8
35.889694	2	cue_nonsocial	n/a	16	n/a	n/a
35.889694	2	cue_nonsocial_low	n/a	16	n/a	n/a
37.894833	1.950129	dec_nonsocial_low	1.950129	16	n/a	2
37.894833	1.950129	dec_nonsocial_low_reject	1.950129	16	reject	2
42.815395	2	cue_social	n/a	16	n/a	n/a
42.815395	2	cue_social_low	n/a	16	n/a	n/a
44.728634	0.983074	dec_social_low	0.983074	16	n/a	2
44.728634	0.983074	dec_social_low_accept	0.983074	16	accept	2
49.664610	2	cue_social	n/a	16	n/a	n/a
49.664610	2	cue_social_low	n/a	16	n/a	n/a
51.561830	1.099716	dec_social_low	1.099716	16	n/a	8
51.561830	1.099716	dec_social_low_accept	1.099716	16	accept	8
57.308445	2	cue_social	n/a	16	n/a	n/a
57.308445	2	cue_social_low	n/a	16	n/a	n/a
59.211624	1.333381	dec_social_low	1.333381	16	n/a	8
59.211624	1.333381	dec_social_low_accept	1.333381	16	accept	8
64.095990	2	cue_social	n/a	16	n/a	n/a
64.095990	2	cue_social_low	n/a	16	n/a	n/a
66.045730	1.315300	dec_social_low	1.315300	16	n/a	1
66.045730	1.315300	dec_social_low_accept	1.315300	16	accept	1
70.939650	2	cue_social	n/a	16	n/a	n/a
70.939650	2	cue_social_low	n/a	16	n/a	n/a
72.877950	1.116925	dec_social_low	1.116925	16	n/a	8
72.877950	1.116925	dec_social_low_accept	1.116925	16	accept	8
77.766340	2	cue_social	n/a	16	n/a	n/a
77.766340	2	cue_social_low	n/a	16	n/a	n/a
79.711480	1.933098	dec_social_low	1.933098	16	n/a	4
79.711480	1.933098	dec_social_low_accept	1.933098	16	accept	4
87.033860	2	cue_social	n/a	16	n/a	n/a
87.033860	2	cue_social_low	n/a	16	n/a	n/a
88.960500	1.501319	dec_social_low	1.501319	16	n/a	4
88.960500	1.501319	dec_social_low_accept	1.501319	16	accept	4
97.896990	2	cue_social	n/a	16	n/a	n/a
97.896990	2	cue_social_low	n/a	16	n/a	n/a
99.827700	1.667051	dec_social_low	1.667051	16	n/a	1
99.827700	1.667051	dec_social_low_accept	1.667051	16	accept	1
105.458230	2	cue_nonsocial	n/a	32	n/a	n/a
105.458230	2	cue_nonsocial_high	n/a	32	n/a	n/a
107.460890	1.566691	dec_nonsocial_high	1.566691	32	n/a	16
107.460890	1.566691	dec_nonsocial_high_accept	1.566691	32	accept	16
112.312256	2	cue_social	n/a	16	n/a	n/a
112.312256	2	cue_social_low	n/a	16	n/a	n/a
114.293976	1.484036	dec_social_low	1.484036	16	n/a	8
114.293976	1.484036	dec_social_low_accept	1.484036	16	accept	8
119.187706	2	cue_social	n/a	16	n/a	n/a
119.187706	2	cue_social_low	n/a	16	n/a	n/a
121.127780	1.333732	dec_social_low	1.333732	16	n/a	1
121.127780	1.333732	dec_social_low_accept	1.333732	16	accept	1
126.038086	2	cue_social	n/a	16	n/a	n/a
126.038086	2	cue_social_low	n/a	16	n/a	n/a
127.960724	1.367639	dec_social_low	1.367639	16	n/a	4
127.960724	1.367639	dec_social_low_accept	1.367639	16	accept	4
133.600780	2	cue_nonsocial	n/a	32	n/a	n/a
133.600780	2	cue_nonsocial_high	n/a	32	n/a	n/a
135.594350	1.116491	dec_nonsocial_high	1.116491	32	n/a	8
135.594350	1.116491	dec_nonsocial_high_accept	1.116491	32	accept	8
141.239030	2	cue_nonsocial	n/a	16	n/a	n/a
141.239030	2	cue_nonsocial_low	n/a	16	n/a	n/a
143.245060	0.899548	dec_nonsocial_low	0.899548	16	n/a	8
143.245060	0.899548	dec_nonsocial_low_accept	0.899548	16	accept	8
148.889360	2	cue_nonsocial	n/a	32	n/a	n/a
148.889360	2	cue_nonsocial_high	n/a	32	n/a	n/a
150.894580	1.633419	dec_nonsocial_high	1.633419	32	n/a	2
150.894580	1.633419	dec_nonsocial_high_reject	1.633419	32	reject	2
158.155720	2	cue_nonsocial	n/a	16	n/a	n/a
158.155720	2	cue_nonsocial_low	n/a	16	n/a	n/a
160.161900	1.132793	dec_nonsocial_low	1.132793	16	n/a	1
160.161900	1.132793	dec_nonsocial_low_reject	1.132793	16	reject	1
165.807480	2	cue_nonsocial	n/a	16	n/a	n/a
165.807480	2	cue_nonsocial_low	n/a	16	n/a	n/a
167.812130	1.382512	dec_nonsocial_low	1.382512	16	n/a	4
167.812130	1.382512	dec_nonsocial_low_accept	1.382512	16	accept	4
175.072190	2	cue_nonsocial	n/a	16	n/a	n/a
175.072190	2	cue_nonsocial_low	n/a	16	n/a	n/a
177.077990	1.334572	dec_nonsocial_low	1.334572	16	n/a	4
177.077990	1.334572	dec_nonsocial_low_accept	1.334572	16	accept	4
181.905650	2	cue_nonsocial	n/a	32	n/a	n/a
181.905650	2	cue_nonsocial_high	n/a	32	n/a	n/a
183.911870	1.899424	dec_nonsocial_high	1.899424	32	n/a	3
183.911870	1.899424	dec_nonsocial_high_reject	1.899424	32	reject	3
189.615160	2	cue_social	n/a	16	n/a	n/a
189.615160	2	cue_social_low	n/a	16	n/a	n/a
191.560730	1.100161	dec_social_low	1.100161	16	n/a	8
191.560730	1.100161	dec_social_low_accept	1.100161	16	accept	8
196.388800	2	cue_nonsocial	n/a	16	n/a	n/a
196.388800	2	cue_nonsocial_low	n/a	16	n/a	n/a
198.394710	1.000087	dec_nonsocial_low	1.000087	16	n/a	8
198.394710	1.000087	dec_nonsocial_low_accept	1.000087	16	accept	8
203.222530	2	cue_nonsocial	n/a	16	n/a	n/a
203.222530	2	cue_nonsocial_low	n/a	16	n/a	n/a
205.227780	0.933656	dec_nonsocial_low	0.933656	16	n/a	8
205.227780	0.933656	dec_nonsocial_low_accept	0.933656	16	accept	8
214.088580	2	cue_nonsocial	n/a	16	n/a	n/a
214.088580	2	cue_nonsocial_low	n/a	16	n/a	n/a
216.094470	2.216165	dec_nonsocial_low	2.216165	16	n/a	2
216.094470	2.216165	dec_nonsocial_low_reject	2.216165	16	reject	2
220.999420	2	cue_social	n/a	16	n/a	n/a
220.999420	2	cue_social_low	n/a	16	n/a	n/a
222.927720	1.249963	dec_social_low	1.249963	16	n/a	4
222.927720	1.249963	dec_social_low_accept	1.249963	16	accept	4
227.852940	2	cue_social	n/a	16	n/a	n/a
227.852940	2	cue_social_low	n/a	16	n/a	n/a
229.761720	1.482792	dec_social_low	1.482792	16	n/a	2
229.761720	1.482792	dec_social_low_accept	1.482792	16	accept	2
235.504140	2	cue_social	n/a	16	n/a	n/a
235.504140	2	cue_social_low	n/a	16	n/a	n/a
237.411970	1.133239	dec_social_low	1.133239	16	n/a	1
237.411970	1.133239	dec_social_low_reject	1.133239	16	reject	1
244.759030	2	cue_social	n/a	16	n/a	n/a
244.759030	2	cue_social_low	n/a	16	n/a	n/a
246.678070	1.865803	dec_social_low	1.865803	16	n/a	1
246.678070	1.865803	dec_social_low_reject	1.865803	16	reject	1
251.506440	2	cue_nonsocial	n/a	16	n/a	n/a
251.506440	2	cue_nonsocial_low	n/a	16	n/a	n/a
253.510530	1.366317	dec_nonsocial_low	1.366317	16	n/a	2
253.510530	1.366317	dec_nonsocial_low_reject	1.366317	16	reject	2
262.446560	2	cue_social	n/a	16	n/a	n/a
262.446560	2	cue_social_low	n/a	16	n/a	n/a
264.377140	1.083143	dec_social_low	1.083143	16	n/a	8
264.377140	1.083143	dec_social_low_accept	1.083143	16	accept	8
269.205260	2	cue_nonsocial	n/a	16	n/a	n/a
269.205260	2	cue_nonsocial_low	n/a	16	n/a	n/a
271.211300	1.282730	dec_nonsocial_low	1.282730	16	n/a	1
271.211300	1.282730	dec_nonsocial_low_reject	1.282730	16	reject	1
276.855530	2	cue_nonsocial	n/a	32	n/a	n/a
276.855530	2	cue_nonsocial_high	n/a	32	n/a	n/a
278.861080	2.116080	dec_nonsocial_high	2.116080	32	n/a	2
278.861080	2.116080	dec_nonsocial_high_reject	2.116080	32	reject	2
286.105070	2	cue_nonsocial	n/a	16	n/a	n/a
286.105070	2	cue_nonsocial_low	n/a	16	n/a	n/a
288.111420	1.632635	dec_nonsocial_low	1.632635	16	n/a	2
288.111420	1.632635	dec_nonsocial_low_reject	1.632635	16	reject	2
292.939000	2	cue_nonsocial	n/a	16	n/a	n/a
292.939000	2	cue_nonsocial_low	n/a	16	n/a	n/a
294.943450	1.050684	dec_nonsocial_low	1.050684	16	n/a	8
294.943450	1.050684	dec_nonsocial_low_accept	1.050684	16	accept	8
299.771730	2	cue_nonsocial	n/a	16	n/a	n/a
299.771730	2	cue_nonsocial_low	n/a	16	n/a	n/a
301.778720	0.948969	dec_nonsocial_low	0.948969	16	n/a	8
301.778720	0.948969	dec_nonsocial_low_accept	0.948969	16	accept	8
307.423100	2	cue_nonsocial	n/a	16	n/a	n/a
307.423100	2	cue_nonsocial_low	n/a	16	n/a	n/a
309.427520	0.983181	dec_nonsocial_low	0.983181	16	n/a	1
309.427520	0.983181	dec_nonsocial_low_reject	0.983181	16	reject	1
314.338260	2	cue_social	n/a	32	n/a	n/a
314.338260	2	cue_social_high	n/a	32	n/a	n/a
316.260740	1.233008	dec_social_high	1.233008	32	n/a	3
316.260740	1.233008	dec_social_high_accept	1.233008	32	accept	3
321.088780	2	cue_nonsocial	n/a	16	n/a	n/a
321.088780	2	cue_nonsocial_low	n/a	16	n/a	n/a
323.094200	1.933343	dec_nonsocial_low	1.933343	16	n/a	1
323.094200	1.933343	dec_nonsocial_low_reject	1.933343	16	reject	1
330.428200	2	cue_social	n/a	16	n/a	n/a
330.428200	2	cue_social_low	n/a	16	n/a	n/a
332.344060	1.733505	dec_social_low	1.733505	16	n/a	2
332.344060	1.733505	dec_social_low_accept	1.733505	16	accept	2
337.171720	2	cue_nonsocial	n/a	16	n/a	n/a
337.171720	2	cue_nonsocial_low	n/a	16	n/a	n/a
339.177860	1.699367	dec_nonsocial_low	1.699367	16	n/a	2
339.177860	1.699367	dec_nonsocial_low_reject	1.699367	16	reject	2
344.069640	2	cue_social	n/a	16	n/a	n/a
344.069640	2	cue_social_low	n/a	16	n/a	n/a
346.010220	1.683933	dec_social_low	1.683933	16	n/a	4
346.010220	1.683933	dec_social_low_accept	1.683933	16	accept	4
350.865900	2	cue_social	n/a	32	n/a	n/a
350.865900	2	cue_social_high	n/a	32	n/a	n/a
352.843050	2.400947	dec_social_high	2.400947	32	n/a	2
352.843050	2.400947	dec_social_high_reject	2.400947	32	reject	2
358.488340	2	cue_nonsocial	n/a	32	n/a	n/a
358.488340	2	cue_nonsocial_high	n/a	32	n/a	n/a
360.493770	2.383951	dec_nonsocial_high	2.383951	32	n/a	8
360.493770	2.383951	dec_nonsocial_high_accept	2.383951	32	accept	8
371.046970	2	cue_social	n/a	16	n/a	n/a
371.046970	2	cue_social_low	n/a	16	n/a	n/a
372.976320	1.200804	dec_social_low	1.200804	16	n/a	4
372.976320	1.200804	dec_social_low_accept	1.200804	16	accept	4
